Counter,Date,Time,Latitude,Longitude,Mag, MagValid,CompassX, CompassY, CompassZ,GyroscopeX, GyroscopeY, GyroscopeZ,AccelerometerX, AccelerometerY, AccelerometerZ,ImuTemperature,Track,LocationSource,Hdop,FixQuality, SatellitesUsed, Altitude,HeightOverEllipsoid,SpeedOverGround,MagneticVariation,VariationDirection,ModeIndicator,GgaSentence,RmcSentence,EventCode,EventInfo,EventDataLength,EventData
13484574,2026-07-24,06:21:42.300,46.48361114,106.27277332,58279.55485,1,-16948,14049,51490,-0.013,-0.251,0.494,0.05840,-0.04228,1.01779,47.638,0.0,I,,,,,,,,,,,,,,,,
13484674,2026-07-24,06:21:42.400,46.48361112,106.27277323,58280.98900,1,-16902,14034,51338,-0.009,-0.260,0.498,0.05882,-0.04222,1.01798,47.668,0.0,I,,,,,,,,,,,,,,,,
13484774,2026-07-24,06:21:42.500,46.48361111,106.27277315,58266.11455,1,-16875,14005,51301,0.018,-0.230,0.484,0.05874,-0.04214,1.01778,47.602,0.0,I,,,,,,,,,,,,,,,,
13484874,2026-07-24,06:21:42.600,46.48361109,106.27277307,58238.10040,1,-16888,14008,51409,0.033,-0.241,0.495,0.05842,-0.04203,1.01725,47.655,0.0,I,,,,,,,,,,,,,,,,
13484974,2026-07-24,06:21:42.700,46.48361107,106.27277298,58185.12590,1,-16885,13994,51413,-0.021,-0.227,0.503,0.05910,-0.04207,1.01733,47.630,0.0,I,,,,,,,,,,,,,,,,
13485074,2026-07-24,06:21:42.800,46.48361106,106.27277290,58101.90200,1,-16878,13968,51422,-0.029,-0.264,0.483,0.05835,-0.04229,1.01808,47.604,0.0,I,,,,,,,,,,,,,,,,
13485174,2026-07-24,06:21:42.900,46.48361104,106.27277281,58042.61910,1,-16841,13937,51336,-0.001,-0.252,0.457,0.05792,-0.04235,1.01830,47.688,0.0,I,,,,,,,,,,,,,,,,
13485274,2026-07-24,06:21:43.000,46.48361102,106.27277274,58302.96865,1,-16864,13893,51420,0.004,-0.234,0.465,0.05814,-0.04206,1.01785,47.661,0.0,G,0.720,2,12,1431.70,-36.00,0.056,0.000, ,,'$GNGGA,062143.00,4629.01692,N,10616.36637,E,2,12,0.72,1431.7,M,-36.0,M,,0129*55','$GNRMC,062143.00,A,4629.01692,N,10616.36637,E,0.056,,240726,,,D,V*17',,,,,
13485374,2026-07-24,06:21:43.100,46.48361101,106.27277274,58697.25945,1,-16907,13936,51467,-0.006,-0.233,0.506,0.05874,-0.04245,1.01758,47.645,0.0,I,,,,,,,,,,,,,,,,
13485474,2026-07-24,06:21:43.200,46.48361099,106.27277276,58816.74860,1,-16924,13952,51345,-0.006,-0.233,0.476,0.05868,-0.04203,1.01772,47.607,0.0,I,,,,,,,,,,,,,,,,
13485574,2026-07-24,06:21:43.300,46.48361097,106.27277278,58843.97220,1,-16940,13921,51376,0.003,-0.262,0.468,0.05810,-0.04254,1.01775,47.646,0.0,I,,,,,,,,,,,,,,,,
13485674,2026-07-24,06:21:43.400,46.48361096,106.27277280,58861.44630,1,-16927,13923,51395,-0.015,-0.252,0.501,0.05828,-0.04228,1.01796,47.602,0.0,I,,,,,,,,,,,,,,,,
13485774,2026-07-24,06:21:43.500,46.48361094,106.27277281,58881.00835,1,-16906,13925,51518,-0.008,-0.235,0.487,0.05839,-0.04191,1.01779,47.623,0.0,I,,,,,,,,,,,,,,,,
13485874,2026-07-24,06:21:43.600,46.48361093,106.27277283,58920.66040,1,-16906,13944,51479,0.029,-0.224,0.456,0.05849,-0.04208,1.01823,47.654,0.0,I,,,,,,,,,,,,,,,,
13485974,2026-07-24,06:21:43.700,46.48361091,106.27277285,58954.56285,1,-16922,13914,51403,-0.004,-0.233,0.465,0.05856,-0.04261,1.01888,47.637,0.0,I,,,,,,,,,,,,,,,,
13486074,2026-07-24,06:21:43.800,46.48361089,106.27277287,58978.90640,1,-16964,13912,51401,-0.008,-0.222,0.470,0.05795,-0.04225,1.01786,47.663,0.0,I,,,,,,,,,,,,,,,,
13486174,2026-07-24,06:21:43.900,46.48361087,106.27277287,58987.90025,1,-17003,13931,51513,0.002,-0.230,0.461,0.05813,-0.04223,1.01803,47.645,0.0,I,,,,,,,,,,,,,,,,
13486274,2026-07-24,06:21:44.000,46.48361087,106.27277291,58991.15590,1,-16960,13957,51504,-0.001,-0.256,0.493,0.05808,-0.04234,1.01802,47.623,0.0,G,0.680,2,12,1431.80,-36.00,0.016,0.000, ,,'$GNGGA,062144.00,4629.01691,N,10616.36638,E,2,12,0.68,1431.8,M,-36.0,M,,0129*5A','$GNRMC,062144.00,A,4629.01691,N,10616.36638,E,0.016,,240726,,,D,V*18',,,,,
13486374,2026-07-24,06:21:44.100,46.48361091,106.27277304,58991.45850,1,-16961,13969,51515,0.001,-0.268,0.512,0.05797,-0.04242,1.01825,47.645,0.0,I,,,,,,,,,,,,,,,,
13486474,2026-07-24,06:21:44.200,46.48361096,106.27277320,58992.65100,1,-16965,13947,51495,0.030,-0.224,0.468,0.05830,-0.04206,1.01786,47.688,0.0,I,,,,,,,,,,,,,,,,
13486574,2026-07-24,06:21:44.300,46.48361101,106.27277335,58996.41060,1,-16948,13981,51411,0.031,-0.238,0.435,0.05829,-0.04197,1.01723,47.657,0.0,I,,,,,,,,,,,,,,,,
13486674,2026-07-24,06:21:44.400,46.48361106,106.27277350,58998.30240,1,-16961,13973,51400,0.016,-0.257,0.466,0.05848,-0.04210,1.01735,47.663,0.0,I,,,,,,,,,,,,,,,,
13486774,2026-07-24,06:21:44.500,46.48361111,106.27277365,58998.44925,1,-16945,13958,51430,0.008,-0.222,0.467,0.05867,-0.04173,1.01762,47.650,0.0,I,,,,,,,,,,,,,,,,
13486874,2026-07-24,06:21:44.600,46.48361116,106.27277380,58998.80235,1,-16947,13957,51401,0.000,-0.237,0.498,0.05783,-0.04208,1.01761,47.648,0.0,I,,,,,,,,,,,,,,,,
13486974,2026-07-24,06:21:44.700,46.48361121,106.27277395,59000.13765,1,-16985,13969,51412,0.036,-0.269,0.447,0.05787,-0.04162,1.01832,47.655,0.0,I,,,,,,,,,,,,,,,,
13487074,2026-07-24,06:21:44.800,46.48361126,106.27277410,58999.85260,1,-16992,13960,51477,0.023,-0.251,0.468,0.05853,-0.04199,1.01787,47.658,0.0,I,,,,,,,,,,,,,,,,
13487174,2026-07-24,06:21:44.900,46.48361131,106.27277425,58999.66720,1,-16989,13947,51367,0.014,-0.243,0.512,0.05834,-0.04192,1.01727,47.637,0.0,I,,,,,,,,,,,,,,,,
13487274,2026-07-24,06:21:45.000,46.48361136,106.27277439,58999.87350,1,-16975,13954,51347,0.004,-0.260,0.481,0.05800,-0.04141,1.01806,47.629,0.0,G,0.580,2,12,1431.80,-36.00,0.052,0.000, ,,'$GNGGA,062145.00,4629.01694,N,10616.36647,E,2,12,0.58,1431.8,M,-36.0,M,,0129*55','$GNRMC,062145.00,A,4629.01694,N,10616.36647,E,0.052,,240726,,,D,V*14',,,,,
13487374,2026-07-24,06:21:45.100,46.48361140,106.27277449,58999.73515,1,-17021,13934,51546,0.003,-0.245,0.503,0.05846,-0.04192,1.01799,47.664,0.0,I,,,,,,,,,,,,,,,,
13487474,2026-07-24,06:21:45.200,46.48361143,106.27277457,58999.71490,1,-17002,13957,51439,0.018,-0.246,0.496,0.05887,-0.04244,1.01787,47.645,0.0,I,,,,,,,,,,,,,,,,
13487574,2026-07-24,06:21:45.300,46.48361146,106.27277465,59000.00445,1,-16926,13962,51293,0.023,-0.237,0.482,0.05842,-0.04231,1.01784,47.658,0.0,I,,,,,,,,,,,,,,,,
13487674,2026-07-24,06:21:45.400,46.48361149,106.27277473,59000.29940,1,-16929,13976,51416,0.010,-0.229,0.495,0.05825,-0.04201,1.01756,47.650,0.0,I,,,,,,,,,,,,,,,,
13487774,2026-07-24,06:21:45.500,46.48361153,106.27277481,59000.36455,1,-16962,13982,51504,-0.010,-0.237,0.517,0.05764,-0.04201,1.01787,47.681,0.0,I,,,,,,,,,,,,,,,,
13487874,2026-07-24,06:21:45.600,46.48361156,106.27277490,59000.36435,1,-16973,13956,51454,0.010,-0.240,0.512,0.05760,-0.04226,1.01824,47.647,0.0,I,,,,,,,,,,,,,,,,
13487974,2026-07-24,06:21:45.700,46.48361159,106.27277498,59000.51225,1,-16962,13972,51382,0.007,-0.254,0.473,0.05873,-0.04200,1.01839,47.672,0.0,I,,,,,,,,,,,,,,,,
13488074,2026-07-24,06:21:45.800,46.48361163,106.27277506,59000.49045,1,-16988,13974,51452,0.007,-0.254,0.472,0.05899,-0.04188,1.01789,47.670,0.0,I,,,,,,,,,,,,,,,,
13488174,2026-07-24,06:21:45.900,46.48361166,106.27277514,59000.31525,1,-17023,13964,51489,0.004,-0.232,0.490,0.05819,-0.04183,1.01771,47.702,0.0,I,,,,,,,,,,,,,,,,
13488274,2026-07-24,06:21:46.000,46.48361169,106.27277523,59000.25660,1,-17004,13957,51390,0.001,-0.210,0.479,0.05775,-0.04194,1.01805,47.644,0.0,G,0.560,2,12,1431.70,-36.00,0.011,0.000, ,,'$GNGGA,062146.00,4629.01696,N,10616.36652,E,2,12,0.56,1431.7,M,-36.0,M,,0129*51','$GNRMC,062146.00,A,4629.01696,N,10616.36652,E,0.011,,240726,,,D,V*16',,,,,
13488374,2026-07-24,06:21:46.100,46.48361172,106.27277534,59000.27675,1,-16990,13967,51350,0.011,-0.226,0.492,0.05801,-0.04183,1.01857,47.648,0.0,I,,,,,,,,,,,,,,,,
13488474,2026-07-24,06:21:46.200,46.48361176,106.27277546,59000.39100,1,-17009,13968,51407,-0.000,-0.252,0.482,0.05798,-0.04234,1.01801,47.641,0.0,I,,,,,,,,,,,,,,,,
13488574,2026-07-24,06:21:46.300,46.48361179,106.27277558,59000.38620,1,-16980,13963,51501,-0.030,-0.261,0.475,0.05842,-0.04220,1.01765,47.639,0.0,I,,,,,,,,,,,,,,,,
13488674,2026-07-24,06:21:46.400,46.48361182,106.27277570,59000.40165,1,-16993,13956,51513,-0.014,-0.245,0.494,0.05871,-0.04206,1.01756,47.667,0.0,I,,,,,,,,,,,,,,,,
13488774,2026-07-24,06:21:46.500,46.48361186,106.27277581,59000.50590,1,-16985,13966,51383,-0.003,-0.238,0.483,0.05852,-0.04251,1.01793,47.668,0.0,I,,,,,,,,,,,,,,,,
13488874,2026-07-24,06:21:46.600,46.48361189,106.27277593,59000.55250,1,-16962,13967,51352,0.005,-0.234,0.452,0.05881,-0.04229,1.01787,47.631,0.0,I,,,,,,,,,,,,,,,,
13488974,2026-07-24,06:21:46.700,46.48361192,106.27277605,59000.46390,1,-16933,14006,51514,0.006,-0.244,0.465,0.05858,-0.04209,1.01719,47.707,0.0,I,,,,,,,,,,,,,,,,
13489074,2026-07-24,06:21:46.800,46.48361196,106.27277617,59000.47410,1,-16980,13964,51550,0.001,-0.253,0.479,0.05853,-0.04219,1.01807,47.675,0.0,I,,,,,,,,,,,,,,,,
13489174,2026-07-24,06:21:46.900,46.48361199,106.27277629,59000.44440,1,-16999,13916,51415,0.016,-0.258,0.482,0.05865,-0.04176,1.01829,47.675,0.0,I,,,,,,,,,,,,,,,,
13489274,2026-07-24,06:21:47.000,46.48361202,106.27277639,59000.40265,1,-16977,13974,51400,0.000,-0.256,0.505,0.05821,-0.04207,1.01788,47.660,0.0,G,0.510,2,12,1431.60,-36.00,0.021,0.000, ,,'$GNGGA,062147.00,4629.01698,N,10616.36659,E,2,12,0.51,1431.6,M,-36.0,M,,0129*53','$GNRMC,062147.00,A,4629.01698,N,10616.36659,E,0.021,,240726,,,D,V*11',,,,,
13489374,2026-07-24,06:21:47.100,46.48361206,106.27277645,59000.44655,1,-16962,13986,51505,-0.027,-0.243,0.483,0.05808,-0.04160,1.01828,47.672,0.0,I,,,,,,,,,,,,,,,,
13489474,2026-07-24,06:21:47.200,46.48361209,106.27277650,59000.41730,1,-17030,13963,51490,0.008,-0.233,0.478,0.05858,-0.04158,1.01760,47.655,0.0,I,,,,,,,,,,,,,,,,
13489574,2026-07-24,06:21:47.300,46.48361212,106.27277655,59000.39340,1,-16961,13981,51474,0.018,-0.254,0.486,0.05820,-0.04178,1.01734,47.665,0.0,I,,,,,,,,,,,,,,,,
13489674,2026-07-24,06:21:47.400,46.48361216,106.27277660,59000.45900,1,-16970,13951,51473,-0.005,-0.245,0.487,0.05761,-0.04179,1.01765,47.646,0.0,I,,,,,,,,,,,,,,,,
13489774,2026-07-24,06:21:47.500,46.48361219,106.27277665,59000.46485,1,-16997,13929,51368,-0.009,-0.245,0.482,0.05826,-0.04168,1.01785,47.703,0.0,I,,,,,,,,,,,,,,,,
13489874,2026-07-24,06:21:47.600,46.48361223,106.27277670,59000.53340,1,-16953,13982,51430,-0.005,-0.257,0.473,0.05850,-0.04140,1.01820,47.674,0.0,I,,,,,,,,,,,,,,,,
13489974,2026-07-24,06:21:47.700,46.48361226,106.27277675,59000.60620,1,-16986,13984,51481,-0.044,-0.253,0.474,0.05829,-0.04173,1.01768,47.703,0.0,I,,,,,,,,,,,,,,,,
13490074,2026-07-24,06:21:47.800,46.48361229,106.27277680,59000.54670,1,-16938,13970,51453,0.011,-0.261,0.480,0.05830,-0.04244,1.01761,47.664,0.0,I,,,,,,,,,,,,,,,,
13490174,2026-07-24,06:21:47.900,46.48361233,106.27277686,59000.44365,1,-16960,13970,51472,0.025,-0.246,0.502,0.05753,-0.04203,1.01857,47.680,0.0,I,,,,,,,,,,,,,,,,
13490274,2026-07-24,06:21:48.000,46.48361236,106.27277689,59000.48200,1,-16968,13944,51469,-0.007,-0.254,0.468,0.05818,-0.04201,1.01822,47.672,0.0,G,0.510,2,12,1431.50,-36.00,0.019,0.000, ,,'$GNGGA,062148.00,4629.01700,N,10616.36662,E,2,12,0.51,1431.5,M,-36.0,M,,0129*57','$GNRMC,062148.00,A,4629.01700,N,10616.36662,E,0.019,,240726,,,D,V*1D',,,,,
13490374,2026-07-24,06:21:48.100,46.48361238,106.27277686,59000.50765,1,-16937,13947,51468,0.013,-0.235,0.471,0.05842,-0.04204,1.01821,47.692,0.0,I,,,,,,,,,,,,,,,,
13490474,2026-07-24,06:21:48.200,46.48361239,106.27277680,59000.45790,1,-16989,13986,51536,0.030,-0.217,0.494,0.05822,-0.04166,1.01837,47.697,0.0,I,,,,,,,,,,,,,,,,
13490574,2026-07-24,06:21:48.300,46.48361241,106.27277675,59000.47255,1,-16959,13945,51464,-0.011,-0.244,0.478,0.05889,-0.04193,1.01831,47.723,0.0,I,,,,,,,,,,,,,,,,
13490674,2026-07-24,06:21:48.400,46.48361243,106.27277670,59000.47150,1,-16914,13944,51393,-0.028,-0.246,0.454,0.05882,-0.04200,1.01769,47.660,0.0,I,,,,,,,,,,,,,,,,
13490774,2026-07-24,06:21:48.500,46.48361244,106.27277665,59000.44815,1,-16921,13954,51389,0.003,-0.231,0.474,0.05812,-0.04193,1.01761,47.665,0.0,I,,,,,,,,,,,,,,,,
13490874,2026-07-24,06:21:48.600,46.48361246,106.27277660,59000.46375,1,-16929,13945,51389,0.018,-0.251,0.471,0.05788,-0.04184,1.01853,47.699,0.0,I,,,,,,,,,,,,,,,,
13490974,2026-07-24,06:21:48.700,46.48361247,106.27277655,59000.44020,1,-16982,13910,51488,-0.026,-0.254,0.444,0.05778,-0.04205,1.01816,47.695,0.0,I,,,,,,,,,,,,,,,,
13491074,2026-07-24,06:21:48.800,46.48361249,106.27277650,59000.46135,1,-16983,13969,51568,-0.011,-0.228,0.455,0.05802,-0.04226,1.01808,47.688,0.0,I,,,,,,,,,,,,,,,,
13491174,2026-07-24,06:21:48.900,46.48361251,106.27277645,59000.51640,1,-16931,13981,51497,0.012,-0.231,0.463,0.05834,-0.04260,1.01781,47.700,0.0,I,,,,,,,,,,,,,,,,
13491274,2026-07-24,06:21:49.000,46.48361252,106.27277640,59000.46620,1,-16901,13931,51458,0.015,-0.267,0.468,0.05762,-0.04249,1.01724,47.704,0.0,G,0.510,2,12,1431.40,-36.00,0.016,0.000, ,,'$GNGGA,062149.00,4629.01701,N,10616.36659,E,2,12,0.51,1431.4,M,-36.0,M,,0129*5E','$GNRMC,062149.00,A,4629.01701,N,10616.36659,E,0.016,,240726,,,D,V*1A',,,,,
13491374,2026-07-24,06:21:49.100,46.48361252,106.27277633,59000.47940,1,-16930,13940,51460,0.019,-0.240,0.465,0.05813,-0.04211,1.01803,47.703,0.0,I,,,,,,,,,,,,,,,,
13491474,2026-07-24,06:21:49.200,46.48361252,106.27277627,59000.53900,1,-17002,13962,51415,-0.006,-0.208,0.467,0.05795,-0.04263,1.01814,47.699,0.0,I,,,,,,,,,,,,,,,,
13491574,2026-07-24,06:21:49.300,46.48361252,106.27277620,59000.49350,1,-16996,13954,51449,0.010,-0.247,0.478,0.05790,-0.04190,1.01810,47.705,0.0,I,,,,,,,,,,,,,,,,
13491674,2026-07-24,06:21:49.400,46.48361252,106.27277613,59000.50875,1,-16958,13946,51439,0.004,-0.245,0.478,0.05815,-0.04173,1.01768,47.718,0.0,I,,,,,,,,,,,,,,,,
13491774,2026-07-24,06:21:49.500,46.48361252,106.27277606,59000.51150,1,-16956,13972,51402,0.003,-0.242,0.500,0.05799,-0.04215,1.01787,47.697,0.0,I,,,,,,,,,,,,,,,,
13491874,2026-07-24,06:21:49.600,46.48361252,106.27277600,59000.51200,1,-16981,13958,51443,0.019,-0.246,0.482,0.05810,-0.04228,1.01862,47.693,0.0,I,,,,,,,,,,,,,,,,
13491974,2026-07-24,06:21:49.700,46.48361252,106.27277593,59000.48025,1,-16964,13939,51479,-0.015,-0.239,0.462,0.05835,-0.04225,1.01825,47.685,0.0,I,,,,,,,,,,,,,,,,
13492074,2026-07-24,06:21:49.800,46.48361252,106.27277586,59000.47355,1,-16973,13958,51481,-0.037,-0.238,0.501,0.05810,-0.04241,1.01854,47.718,0.0,I,,,,,,,,,,,,,,,,
13492174,2026-07-24,06:21:49.900,46.48361252,106.27277579,59000.53145,1,-16969,13976,51418,-0.013,-0.237,0.512,0.05823,-0.04203,1.01840,47.658,0.0,I,,,,,,,,,,,,,,,,
13492274,2026-07-24,06:21:50.000,46.48361252,106.27277573,59000.50680,1,-16976,13977,51402,0.030,-0.241,0.485,0.05795,-0.04210,1.01816,47.695,0.0,G,0.510,2,12,1431.30,-36.00,0.035,0.000, ,,'$GNGGA,062150.00,4629.01701,N,10616.36655,E,2,12,0.51,1431.3,M,-36.0,M,,0129*5D','$GNRMC,062150.00,A,4629.01701,N,10616.36655,E,0.035,,240726,,,D,V*1F',,,,,
13492374,2026-07-24,06:21:50.100,46.48361252,106.27277571,59000.50395,1,-16953,13955,51441,0.010,-0.276,0.462,0.05804,-0.04253,1.01764,47.717,0.0,I,,,,,,,,,,,,,,,,
13492474,2026-07-24,06:21:50.200,46.48361252,106.27277570,59000.52380,1,-16932,13924,51391,-0.008,-0.264,0.454,0.05808,-0.04221,1.01792,47.727,0.0,I,,,,,,,,,,,,,,,,
13492574,2026-07-24,06:21:50.300,46.48361252,106.27277568,59000.48110,1,-16954,13948,51459,0.018,-0.235,0.474,0.05848,-0.04228,1.01870,47.707,0.0,I,,,,,,,,,,,,,,,,
13492674,2026-07-24,06:21:50.400,46.48361252,106.27277567,59000.48230,1,-16981,13965,51435,0.005,-0.258,0.494,0.05918,-0.04213,1.01880,47.715,0.0,I,,,,,,,,,,,,,,,,
13492774,2026-07-24,06:21:50.500,46.48361252,106.27277565,59000.51185,1,-16954,13956,51504,0.000,-0.215,0.495,0.05834,-0.04208,1.01856,47.703,0.0,I,,,,,,,,,,,,,,,,
13492874,2026-07-24,06:21:50.600,46.48361252,106.27277563,59000.53570,1,-16954,13986,51509,-0.009,-0.224,0.471,0.05828,-0.04241,1.01759,47.724,0.0,I,,,,,,,,,,,,,,,,
13492974,2026-07-24,06:21:50.700,46.48361252,106.27277562,59000.52415,1,-16971,13979,51341,0.020,-0.288,0.467,0.05851,-0.04228,1.01746,47.706,0.0,I,,,,,,,,,,,,,,,,
13493074,2026-07-24,06:21:50.800,46.48361252,106.27277560,59000.52780,1,-16970,13950,51392,0.041,-0.263,0.494,0.05841,-0.04185,1.01906,47.697,0.0,I,,,,,,,,,,,,,,,,
13493174,2026-07-24,06:21:50.900,46.48361252,106.27277558,59000.53425,1,-16948,13946,51434,0.020,-0.218,0.504,0.05848,-0.04172,1.01866,47.734,0.0,I,,,,,,,,,,,,,,,,
13493274,2026-07-24,06:21:51.000,46.48361252,106.27277557,59000.48875,1,-16972,13949,51532,0.026,-0.238,0.499,0.05845,-0.04190,1.01813,47.719,0.0,G,0.510,2,12,1431.30,-36.00,0.007,0.000, ,,'$GNGGA,062151.00,4629.01701,N,10616.36654,E,2,12,0.51,1431.3,M,-36.0,M,,0129*5D','$GNRMC,062151.00,A,4629.01701,N,10616.36654,E,0.007,,240726,,,D,V*1E',,,,,
13493374,2026-07-24,06:21:51.100,46.48361254,106.27277558,59000.44140,1,-16969,13944,51465,0.015,-0.243,0.490,0.05825,-0.04204,1.01864,47.732,0.0,I,,,,,,,,,,,,,,,,
13493474,2026-07-24,06:21:51.200,46.48361256,106.27277560,59000.50430,1,-16948,13960,51372,0.009,-0.232,0.478,0.05844,-0.04170,1.01833,47.699,0.0,I,,,,,,,,,,,,,,,,
13493574,2026-07-24,06:21:51.300,46.48361257,106.27277562,59000.53420,1,-16960,13988,51495,0.029,-0.234,0.460,0.05843,-0.04190,1.01855,47.723,0.0,I,,,,,,,,,,,,,,,,
13493674,2026-07-24,06:21:51.400,46.48361259,106.27277563,59000.52685,1,-16999,13968,51466,0.025,-0.243,0.464,0.05826,-0.04267,1.01828,47.702,0.0,I,,,,,,,,,,,,,,,,
13493774,2026-07-24,06:21:51.500,46.48361261,106.27277565,59000.54425,1,-16942,13966,51466,0.014,-0.249,0.476,0.05911,-0.04193,1.01802,47.711,0.0,I,,,,,,,,,,,,,,,,
13493874,2026-07-24,06:21:51.600,46.48361262,106.27277567,59000.46410,1,-16955,13970,51409,-0.003,-0.235,0.463,0.05899,-0.04200,1.01819,47.730,0.0,I,,,,,,,,,,,,,,,,
13493974,2026-07-24,06:21:51.700,46.48361264,106.27277568,59000.50600,1,-16981,13971,51478,0.005,-0.242,0.471,0.05844,-0.04186,1.01800,47.713,0.0,I,,,,,,,,,,,,,,,,
13494074,2026-07-24,06:21:51.800,46.48361266,106.27277570,59000.55155,1,-16948,13965,51488,-0.007,-0.252,0.467,0.05844,-0.04166,1.01879,47.700,0.0,I,,,,,,,,,,,,,,,,
13494174,2026-07-24,06:21:51.900,46.48361268,106.27277571,59000.51030,1,-16961,13967,51370,0.014,-0.216,0.480,0.05814,-0.04209,1.01837,47.758,0.0,I,,,,,,,,,,,,,,,,
13494274,2026-07-24,06:21:52.000,46.48361269,106.27277573,59000.53795,1,-16968,13961,51429,0.035,-0.251,0.462,0.05811,-0.04246,1.01813,47.730,0.0,G,0.510,2,12,1431.30,-36.00,0.007,0.000, ,,'$GNGGA,062152.00,4629.01702,N,10616.36655,E,2,12,0.51,1431.3,M,-36.0,M,,0129*5C','$GNRMC,062152.00,A,4629.01702,N,10616.36655,E,0.007,,240726,,,D,V*1F',,,,,
13494374,2026-07-24,06:21:52.100,46.48361269,106.27277576,59000.48905,1,-16938,13951,51568,0.006,-0.244,0.450,0.05849,-0.04224,1.01828,47.729,0.0,I,,,,,,,,,,,,,,,,
13494474,2026-07-24,06:21:52.200,46.48361269,106.27277580,59000.48975,1,-16911,13965,51518,-0.014,-0.250,0.480,0.05863,-0.04204,1.01769,47.729,0.0,I,,,,,,,,,,,,,,,,
13494574,2026-07-24,06:21:52.300,46.48361269,106.27277583,59000.48465,1,-16980,13945,51409,-0.013,-0.270,0.462,0.05832,-0.04235,1.01768,47.750,0.0,I,,,,,,,,,,,,,,,,
13494674,2026-07-24,06:21:52.400,46.48361269,106.27277587,59000.45295,1,-16985,13947,51431,0.012,-0.253,0.459,0.05802,-0.04173,1.01831,47.707,0.0,I,,,,,,,,,,,,,,,,
13494774,2026-07-24,06:21:52.500,46.48361269,106.27277590,59000.47830,1,-17016,13960,51498,-0.014,-0.234,0.495,0.05838,-0.04105,1.01806,47.691,0.0,I,,,,,,,,,,,,,,,,
13494874,2026-07-24,06:21:52.600,46.48361269,106.27277593,59000.48085,1,-17001,13931,51360,-0.033,-0.250,0.485,0.05802,-0.04208,1.01771,47.717,0.0,I,,,,,,,,,,,,,,,,
13494974,2026-07-24,06:21:52.700,46.48361269,106.27277597,59000.44260,1,-16968,13938,51462,-0.018,-0.250,0.490,0.05865,-0.04198,1.01813,47.734,0.0,I,,,,,,,,,,,,,,,,
13495074,2026-07-24,06:21:52.800,46.48361269,106.27277600,59000.44380,1,-16980,13937,51463,0.020,-0.247,0.501,0.05858,-0.04184,1.01820,47.741,0.0,I,,,,,,,,,,,,,,,,
13495174,2026-07-24,06:21:52.900,46.48361269,106.27277604,59000.46265,1,-16970,13922,51426,0.016,-0.264,0.500,0.05831,-0.04241,1.01835,47.701,0.0,I,,,,,,,,,,,,,,,,
13495274,2026-07-24,06:21:53.000,46.48361269,106.27277607,59000.49675,1,-16937,13950,51491,0.028,-0.255,0.475,0.05871,-0.04217,1.01877,47.725,0.0,G,0.500,2,12,1431.20,-36.00,0.011,0.000, ,,'$GNGGA,062153.00,4629.01702,N,10616.36657,E,2,12,0.50,1431.2,M,-36.0,M,,0129*5F','$GNRMC,062153.00,A,4629.01702,N,10616.36657,E,0.011,,240726,,,D,V*1B',,,,,
13495374,2026-07-24,06:21:53.100,46.48361269,106.27277607,59000.45215,1,-16944,13956,51514,0.034,-0.226,0.456,0.05878,-0.04211,1.01817,47.720,0.0,I,,,,,,,,,,,,,,,,
13495474,2026-07-24,06:21:53.200,46.48361269,106.27277607,59000.46055,1,-16964,13958,51526,0.025,-0.238,0.486,0.05833,-0.04212,1.01838,47.751,0.0,I,,,,,,,,,,,,,,,,
13495574,2026-07-24,06:21:53.300,46.48361269,106.27277607,59000.49570,1,-16951,13961,51512,0.012,-0.258,0.470,0.05762,-0.04205,1.01797,47.707,0.0,I,,,,,,,,,,,,,,,,
13495674,2026-07-24,06:21:53.400,46.48361269,106.27277607,59000.49675,1,-16976,13948,51505,0.002,-0.227,0.463,0.05757,-0.04245,1.01815,47.730,0.0,I,,,,,,,,,,,,,,,,
13495774,2026-07-24,06:21:53.500,46.48361269,106.27277607,59000.43000,1,-16964,13945,51478,0.055,-0.225,0.479,0.05858,-0.04247,1.01801,47.738,0.0,I,,,,,,,,,,,,,,,,
13495874,2026-07-24,06:21:53.600,46.48361269,106.27277607,59000.39735,1,-16990,13965,51553,0.024,-0.284,0.472,0.05872,-0.04222,1.01823,47.749,0.0,I,,,,,,,,,,,,,,,,
13495974,2026-07-24,06:21:53.700,46.48361269,106.27277607,59000.45300,1,-16938,13966,51505,-0.002,-0.248,0.480,0.05772,-0.04214,1.01857,47.744,0.0,I,,,,,,,,,,,,,,,,
13496074,2026-07-24,06:21:53.800,46.48361269,106.27277607,59000.50035,1,-16939,13955,51529,-0.008,-0.249,0.456,0.05816,-0.04201,1.01765,47.701,0.0,I,,,,,,,,,,,,,,,,
13496174,2026-07-24,06:21:53.900,46.48361269,106.27277607,59000.46555,1,-16982,13947,51450,-0.011,-0.266,0.468,0.05901,-0.04222,1.01757,47.744,0.0,I,,,,,,,,,,,,,,,,
13496274,2026-07-24,06:21:54.000,46.48361269,106.27277607,59000.42605,1,-16965,13950,51379,0.011,-0.251,0.492,0.05818,-0.04300,1.01788,47.782,0.0,G,0.500,2,12,1431.20,-36.00,0.021,0.000, ,,'$GNGGA,062154.00,4629.01702,N,10616.36657,E,2,12,0.50,1431.2,M,-36.0,M,,0129*58','$GNRMC,062154.00,A,4629.01702,N,10616.36657,E,0.021,,240726,,,D,V*1F',,,,,
13496374,2026-07-24,06:21:54.100,46.48361266,106.27277604,59000.48785,1,-16959,13970,51503,0.019,-0.242,0.497,0.05804,-0.04351,1.01832,47.746,0.0,I,,,,,,,,,,,,,,,,
13496474,2026-07-24,06:21:54.200,46.48361263,106.27277600,59000.47635,1,-17001,13973,51566,0.000,-0.253,0.485,0.05847,-0.04279,1.01855,47.740,0.0,I,,,,,,,,,,,,,,,,
13496574,2026-07-24,06:21:54.300,46.48361259,106.27277597,59000.44145,1,-16961,13979,51479,-0.012,-0.256,0.477,0.05899,-0.04262,1.01825,47.693,0.0,I,,,,,,,,,,,,,,,,
13496674,2026-07-24,06:21:54.400,46.48361256,106.27277593,59000.47180,1,-16899,13953,51361,0.011,-0.258,0.482,0.05861,-0.04323,1.01837,47.734,0.0,I,,,,,,,,,,,,,,,,
13496774,2026-07-24,06:21:54.500,46.48361253,106.27277590,59000.43265,1,-16951,13920,51417,0.020,-0.252,0.481,0.05808,-0.04293,1.01839,47.741,0.0,I,,,,,,,,,,,,,,,,
13496874,2026-07-24,06:21:54.600,46.48361249,106.27277587,59000.45720,1,-16949,13928,51462,0.027,-0.255,0.479,0.05884,-0.04263,1.01817,47.717,0.0,I,,,,,,,,,,,,,,,,
13496974,2026-07-24,06:21:54.700,46.48361246,106.27277583,59000.42980,1,-16932,13931,51450,0.007,-0.247,0.484,0.05847,-0.04274,1.01858,47.713,0.0,I,,,,,,,,,,,,,,,,
13497074,2026-07-24,06:21:54.800,46.48361243,106.27277580,59000.44380,1,-16972,13926,51420,0.006,-0.230,0.475,0.05842,-0.04257,1.01790,47.723,0.0,I,,,,,,,,,,,,,,,,
13497174,2026-07-24,06:21:54.900,46.48361239,106.27277576,59000.45615,1,-16945,13958,51474,-0.007,-0.244,0.483,0.05862,-0.04254,1.01842,47.745,0.0,I,,,,,,,,,,,,,,,,
13497274,2026-07-24,06:21:55.000,46.48361236,106.27277574,59000.42600,1,-16912,13971,51402,-0.016,-0.230,0.478,0.05843,-0.04307,1.01848,47.748,0.0,G,0.510,2,12,1431.20,-36.00,0.005,0.000, ,,'$GNGGA,062155.00,4629.01700,N,10616.36655,E,2,12,0.51,1431.2,M,-36.0,M,,0129*58','$GNRMC,062155.00,A,4629.01700,N,10616.36655,E,0.005,,240726,,,D,V*18',,,,,
13497374,2026-07-24,06:21:55.100,46.48361236,106.27277577,59000.44415,1,-16944,13953,51433,0.017,-0.243,0.480,0.05814,-0.04314,1.01845,47.748,0.0,I,,,,,,,,,,,,,,,,
13497474,2026-07-24,06:21:55.200,46.48361236,106.27277583,59000.43420,1,-16994,13968,51440,0.032,-0.251,0.483,0.05847,-0.04287,1.01856,47.729,0.0,I,,,,,,,,,,,,,,,,
13497574,2026-07-24,06:21:55.300,46.48361236,106.27277588,59000.41225,1,-16995,13979,51410,-0.000,-0.240,0.485,0.05849,-0.04277,1.01864,47.739,0.0,I,,,,,,,,,,,,,,,,
13497674,2026-07-24,06:21:55.400,46.48361236,106.27277593,59000.41510,1,-16957,13950,51445,-0.005,-0.232,0.489,0.05870,-0.04268,1.01895,47.768,0.0,I,,,,,,,,,,,,,,,,
13497774,2026-07-24,06:21:55.500,46.48361236,106.27277598,59000.43805,1,-16973,13939,51472,0.006,-0.214,0.466,0.05814,-0.04398,1.01811,47.799,0.0,I,,,,,,,,,,,,,,,,
13497874,2026-07-24,06:21:55.600,46.48361236,106.27277603,59000.47825,1,-16988,13925,51435,-0.004,-0.245,0.468,0.05822,-0.04340,1.01769,47.736,0.0,I,,,,,,,,,,,,,,,,
13497974,2026-07-24,06:21:55.700,46.48361236,106.27277608,59000.44965,1,-16958,13951,51438,-0.004,-0.255,0.477,0.05825,-0.04219,1.01854,47.784,0.0,I,,,,,,,,,,,,,,,,
13498074,2026-07-24,06:21:55.800,46.48361236,106.27277613,59000.45140,1,-16952,13953,51490,-0.015,-0.250,0.484,0.05845,-0.04235,1.01780,47.789,0.0,I,,,,,,,,,,,,,,,,
13498174,2026-07-24,06:21:55.900,46.48361236,106.27277618,59000.45475,1,-16923,13970,51548,0.004,-0.244,0.492,0.05866,-0.04166,1.01824,47.760,0.0,I,,,,,,,,,,,,,,,,
13498274,2026-07-24,06:21:56.000,46.48361236,106.27277623,59000.48395,1,-16916,13958,51481,0.019,-0.240,0.481,0.05812,-0.04140,1.01861,47.777,0.0,G,0.500,2,12,1431.20,-36.00,0.005,0.000, ,,'$GNGGA,062156.00,4629.01700,N,10616.36658,E,2,12,0.50,1431.2,M,-36.0,M,,0129*57','$GNRMC,062156.00,A,4629.01700,N,10616.36658,E,0.005,,240726,,,D,V*16',,,,,
13498374,2026-07-24,06:21:56.100,46.48361236,106.27277628,59000.46020,1,-16974,13929,51479,0.008,-0.255,0.473,0.05813,-0.04224,1.01862,47.748,0.0,I,,,,,,,,,,,,,,,,
13498474,2026-07-24,06:21:56.200,46.48361236,106.27277633,59000.38430,1,-16968,13921,51528,0.010,-0.232,0.477,0.05805,-0.04269,1.01905,47.787,0.0,I,,,,,,,,,,,,,,,,
13498574,2026-07-24,06:21:56.300,46.48361236,106.27277638,59000.40905,1,-16981,13925,51501,0.005,-0.256,0.499,0.05792,-0.04166,1.01869,47.734,0.0,I,,,,,,,,,,,,,,,,
13498674,2026-07-24,06:21:56.400,46.48361236,106.27277643,59000.44725,1,-16968,13955,51372,0.006,-0.280,0.488,0.05790,-0.04197,1.01767,47.732,0.0,I,,,,,,,,,,,,,,,,
13498774,2026-07-24,06:21:56.500,46.48361236,106.27277648,59000.41965,1,-16931,13956,51403,0.014,-0.263,0.480,0.05815,-0.04268,1.01716,47.782,0.0,I,,,,,,,,,,,,,,,,
13498874,2026-07-24,06:21:56.600,46.48361236,106.27277653,59000.39380,1,-16950,13939,51430,0.011,-0.243,0.461,0.05841,-0.04261,1.01790,47.772,0.0,I,,,,,,,,,,,,,,,,
13498974,2026-07-24,06:21:56.700,46.48361236,106.27277658,59000.43115,1,-16952,13965,51349,-0.011,-0.249,0.458,0.05783,-0.04277,1.01866,47.754,0.0,I,,,,,,,,,,,,,,,,
13499074,2026-07-24,06:21:56.800,46.48361236,106.27277663,59000.39800,1,-16956,13996,51380,0.003,-0.229,0.468,0.05775,-0.04205,1.01849,47.748,0.0,I,,,,,,,,,,,,,,,,
13499174,2026-07-24,06:21:56.900,46.48361236,106.27277668,59000.40605,1,-16983,13963,51446,0.006,-0.237,0.473,0.05857,-0.04203,1.01799,47.768,0.0,I,,,,,,,,,,,,,,,,
13499274,2026-07-24,06:21:57.000,46.48361236,106.27277673,59000.39600,1,-16976,13938,51487,-0.016,-0.247,0.473,0.05848,-0.04223,1.01830,47.785,0.0,G,0.500,2,12,1431.20,-36.00,0.025,0.000, ,,'$GNGGA,062157.00,4629.01700,N,10616.36661,E,2,12,0.50,1431.2,M,-36.0,M,,0129*5C','$GNRMC,062157.00,A,4629.01700,N,10616.36661,E,0.025,,240726,,,D,V*1F',,,,,
13499374,2026-07-24,06:21:57.100,46.48361238,106.27277675,59000.39145,1,-16924,13974,51437,0.005,-0.251,0.470,0.05826,-0.04202,1.01809,47.758,0.0,I,,,,,,,,,,,,,,,,
13499474,2026-07-24,06:21:57.200,46.48361239,106.27277676,59000.41345,1,-16924,13968,51419,-0.001,-0.262,0.498,0.05806,-0.04260,1.01856,47.781,0.0,I,,,,,,,,,,,,,,,,
13499574,2026-07-24,06:21:57.300,46.48361241,106.27277678,59000.43990,1,-16973,13971,51399,-0.024,-0.251,0.480,0.05814,-0.04247,1.01843,47.770,0.0,I,,,,,,,,,,,,,,,,
13499674,2026-07-24,06:21:57.400,46.48361243,106.27277680,59000.36585,1,-17015,13964,51323,0.014,-0.220,0.471,0.05812,-0.04174,1.01804,47.757,0.0,I,,,,,,,,,,,,,,,,
13499774,2026-07-24,06:21:57.500,46.48361244,106.27277681,59000.33545,1,-16981,13916,51417,0.026,-0.237,0.492,0.05834,-0.04229,1.01830,47.783,0.0,I,,,,,,,,,,,,,,,,
13499874,2026-07-24,06:21:57.600,46.48361246,106.27277683,59000.36005,1,-16940,13949,51468,0.005,-0.254,0.478,0.05851,-0.04243,1.01864,47.768,0.0,I,,,,,,,,,,,,,,,,
13499974,2026-07-24,06:21:57.700,46.48361247,106.27277685,59000.36195,1,-16948,13978,51491,0.006,-0.265,0.476,0.05819,-0.04186,1.01869,47.755,0.0,I,,,,,,,,,,,,,,,,
13500074,2026-07-24,06:21:57.800,46.48361249,106.27277687,59000.32840,1,-16926,13957,51470,0.011,-0.241,0.485,0.05827,-0.04182,1.01826,47.810,0.0,I,,,,,,,,,,,,,,,,
13500174,2026-07-24,06:21:57.900,46.48361251,106.27277688,59000.38900,1,-16926,13951,51424,0.002,-0.240,0.473,0.05831,-0.04250,1.01772,47.775,0.0,I,,,,,,,,,,,,,,,,
13500274,2026-07-24,06:21:58.000,46.48361252,106.27277690,59000.39170,1,-16915,13978,51452,0.001,-0.254,0.490,0.05809,-0.04280,1.01744,47.820,0.0,G,0.500,2,12,1431.20,-36.00,0.039,0.000, ,,'$GNGGA,062158.00,4629.01701,N,10616.36662,E,2,12,0.50,1431.2,M,-36.0,M,,0129*51','$GNRMC,062158.00,A,4629.01701,N,10616.36662,E,0.039,,240726,,,D,V*1F',,,,,
13500374,2026-07-24,06:21:58.100,46.48361254,106.27277692,59000.38820,1,-16976,13978,51457,0.002,-0.257,0.512,0.05774,-0.04234,1.01788,47.752,0.0,I,,,,,,,,,,,,,,,,
13500474,2026-07-24,06:21:58.200,46.48361256,106.27277693,59000.36320,1,-16989,13990,51411,0.016,-0.247,0.491,0.05793,-0.04209,1.01865,47.774,0.0,I,,,,,,,,,,,,,,,,
13500574,2026-07-24,06:21:58.300,46.48361257,106.27277695,59000.34480,1,-16940,13938,51418,-0.009,-0.227,0.469,0.05820,-0.04192,1.01875,47.779,0.0,I,,,,,,,,,,,,,,,,
13500674,2026-07-24,06:21:58.400,46.48361259,106.27277697,59000.36885,1,-16971,13930,51411,0.000,-0.240,0.485,0.05873,-0.04203,1.01884,47.754,0.0,I,,,,,,,,,,,,,,,,
13500774,2026-07-24,06:21:58.500,46.48361261,106.27277698,59000.33105,1,-16982,13921,51400,0.022,-0.281,0.461,0.05884,-0.04214,1.01915,47.775,0.0,I,,,,,,,,,,,,,,,,
13500874,2026-07-24,06:21:58.600,46.48361262,106.27277700,59000.30595,1,-16959,13932,51394,0.049,-0.249,0.451,0.05841,-0.04228,1.01898,47.827,0.0,I,,,,,,,,,,,,,,,,
13500974,2026-07-24,06:21:58.700,46.48361264,106.27277702,59000.31580,1,-16953,13940,51511,0.021,-0.225,0.478,0.05818,-0.04212,1.01851,47.769,0.0,I,,,,,,,,,,,,,,,,
13501074,2026-07-24,06:21:58.800,46.48361266,106.27277704,59000.33260,1,-16937,13937,51522,0.010,-0.257,0.467,0.05811,-0.04191,1.01807,47.793,0.0,I,,,,,,,,,,,,,,,,
13501174,2026-07-24,06:21:58.900,46.48361268,106.27277705,59000.36625,1,-16951,13936,51410,0.007,-0.258,0.469,0.05780,-0.04236,1.01869,47.799,0.0,I,,,,,,,,,,,,,,,,
13501274,2026-07-24,06:21:59.000,46.48361269,106.27277707,59000.38950,1,-16949,13930,51392,0.009,-0.250,0.468,0.05801,-0.04234,1.01857,47.780,0.0,G,0.500,2,12,1431.10,-36.00,0.011,0.000, ,,'$GNGGA,062159.00,4629.01702,N,10616.36663,E,2,12,0.50,1431.1,M,-36.0,M,,0129*51','$GNRMC,062159.00,A,4629.01702,N,10616.36663,E,0.011,,240726,,,D,V*16',,,,,
13501374,2026-07-24,06:21:59.100,46.48361269,106.27277709,59000.31405,1,-16954,13965,51405,0.018,-0.257,0.487,0.05809,-0.04242,1.01832,47.782,0.0,I,,,,,,,,,,,,,,,,
13501474,2026-07-24,06:21:59.200,46.48361269,106.27277710,59000.31355,1,-16944,13987,51372,0.026,-0.242,0.485,0.05807,-0.04260,1.01853,47.811,0.0,I,,,,,,,,,,,,,,,,
13501574,2026-07-24,06:21:59.300,46.48361269,106.27277712,59000.31760,1,-16987,13970,51481,-0.017,-0.246,0.465,0.05816,-0.04245,1.01829,47.811,0.0,I,,,,,,,,,,,,,,,,
13501674,2026-07-24,06:21:59.400,46.48361269,106.27277713,59000.33080,1,-16986,13935,51444,-0.006,-0.241,0.488,0.05819,-0.04218,1.01855,47.802,0.0,I,,,,,,,,,,,,,,,,
13501774,2026-07-24,06:21:59.500,46.48361269,106.27277715,59000.37170,1,-16954,13952,51467,0.012,-0.229,0.478,0.05864,-0.04239,1.01897,47.804,0.0,I,,,,,,,,,,,,,,,,
13501874,2026-07-24,06:21:59.600,46.48361269,106.27277717,59000.33500,1,-16931,13965,51505,0.002,-0.246,0.503,0.05815,-0.04239,1.01925,47.795,0.0,I,,,,,,,,,,,,,,,,
13501974,2026-07-24,06:21:59.700,46.48361269,106.27277718,59000.34135,1,-16946,13940,51464,0.035,-0.248,0.512,0.05821,-0.04229,1.01834,47.785,0.0,I,,,,,,,,,,,,,,,,
13502074,2026-07-24,06:21:59.800,46.48361269,106.27277720,59000.34415,1,-16943,13904,51502,0.022,-0.248,0.461,0.05828,-0.04242,1.01851,47.832,0.0,I,,,,,,,,,,,,,,,,
13502174,2026-07-24,06:21:59.900,46.48361269,106.27277722,59000.35215,1,-16926,13919,51547,0.034,-0.259,0.488,0.05776,-0.04268,1.01855,47.789,0.0,I,,,,,,,,,,,,,,,,
13502274,2026-07-24,06:22:00.000,46.48361269,106.27277723,59000.39500,1,-16949,13977,51504,0.026,-0.252,0.477,0.05822,-0.04272,1.01859,47.820,0.0,G,0.500,2,12,1431.10,-36.00,0.019,0.000, ,,'$GNGGA,062200.00,4629.01702,N,10616.36664,E,2,12,0.50,1431.1,M,-36.0,M,,0129*59','$GNRMC,062200.00,A,4629.01702,N,10616.36664,E,0.019,,240726,,,D,V*16',,,,,
13502374,2026-07-24,06:22:00.100,46.48361268,106.27277722,59000.27855,1,-16981,13964,51468,-0.019,-0.221,0.464,0.05875,-0.04280,1.01842,47.770,0.0,I,,,,,,,,,,,,,,,,
13502474,2026-07-24,06:22:00.200,46.48361266,106.27277720,59000.26935,1,-16946,13949,51419,-0.032,-0.211,0.484,0.05840,-0.04225,1.01831,47.789,0.0,I,,,,,,,,,,,,,,,,
13502574,2026-07-24,06:22:00.300,46.48361264,106.27277718,59000.33585,1,-16946,13950,51458,0.000,-0.220,0.447,0.05836,-0.04216,1.01856,47.795,0.0,I,,,,,,,,,,,,,,,,
13502674,2026-07-24,06:22:00.400,46.48361262,106.27277717,59000.36070,1,-16977,13935,51430,0.010,-0.233,0.475,0.05804,-0.04245,1.01847,47.793,0.0,I,,,,,,,,,,,,,,,,
13502774,2026-07-24,06:22:00.500,46.48361261,106.27277715,59000.35705,1,-16982,13928,51454,0.009,-0.221,0.487,0.05783,-0.04254,1.01810,47.859,0.0,I,,,,,,,,,,,,,,,,
13502874,2026-07-24,06:22:00.600,46.48361259,106.27277713,59000.33545,1,-16987,13933,51483,0.017,-0.237,0.481,0.05881,-0.04247,1.01834,47.777,0.0,I,,,,,,,,,,,,,,,,
13502974,2026-07-24,06:22:00.700,46.48361257,106.27277712,59000.31365,1,-16929,13960,51479,0.014,-0.245,0.499,0.05834,-0.04250,1.01830,47.772,0.0,I,,,,,,,,,,,,,,,,
13503074,2026-07-24,06:22:00.800,46.48361256,106.27277710,59000.35080,1,-16959,13957,51486,0.017,-0.267,0.487,0.05781,-0.04308,1.01745,47.793,0.0,I,,,,,,,,,,,,,,,,
13503174,2026-07-24,06:22:00.900,46.48361254,106.27277708,59000.34300,1,-16988,13962,51395,0.008,-0.256,0.482,0.05845,-0.04229,1.01793,47.801,0.0,I,,,,,,,,,,,,,,,,
13503274,2026-07-24,06:22:01.000,46.48361252,106.27277707,59000.32995,1,-16964,13956,51405,0.024,-0.221,0.485,0.05836,-0.04200,1.01893,47.773,0.0,G,0.500,2,12,1431.10,-36.00,0.019,0.000, ,,'$GNGGA,062201.00,4629.01701,N,10616.36663,E,2,12,0.50,1431.1,M,-36.0,M,,0129*5C','$GNRMC,062201.00,A,4629.01701,N,10616.36663,E,0.019,,240726,,,D,V*13',,,,,
13503374,2026-07-24,06:22:01.100,46.48361252,106.27277707,59000.31545,1,-16940,13942,51485,0.033,-0.239,0.488,0.05848,-0.04224,1.01859,47.796,0.0,I,,,,,,,,,,,,,,,,
13503474,2026-07-24,06:22:01.200,46.48361252,106.27277707,59000.27730,1,-16943,13949,51408,0.028,-0.255,0.488,0.05820,-0.04263,1.01806,47.831,0.0,I,,,,,,,,,,,,,,,,
13503574,2026-07-24,06:22:01.300,46.48361252,106.27277707,59000.29345,1,-16968,13968,51501,0.006,-0.247,0.479,0.05777,-0.04297,1.01849,47.795,0.0,I,,,,,,,,,,,,,,,,
13503674,2026-07-24,06:22:01.400,46.48361252,106.27277707,59000.33710,1,-16969,13954,51510,0.001,-0.242,0.488,0.05810,-0.04309,1.01869,47.785,0.0,I,,,,,,,,,,,,,,,,
13503774,2026-07-24,06:22:01.500,46.48361252,106.27277707,59000.32945,1,-16935,13941,51440,0.018,-0.260,0.487,0.05838,-0.04269,1.01834,47.844,0.0,I,,,,,,,,,,,,,,,,
13503874,2026-07-24,06:22:01.600,46.48361252,106.27277707,59000.34760,1,-16925,13955,51483,0.009,-0.280,0.473,0.05855,-0.04226,1.01882,47.834,0.0,I,,,,,,,,,,,,,,,,
13503974,2026-07-24,06:22:01.700,46.48361252,106.27277707,59000.32255,1,-16968,13945,51396,0.019,-0.245,0.477,0.05803,-0.04240,1.01852,47.814,0.0,I,,,,,,,,,,,,,,,,
13504074,2026-07-24,06:22:01.800,46.48361252,106.27277707,59000.31225,1,-17023,13951,51398,0.011,-0.206,0.453,0.05837,-0.04184,1.01867,47.855,0.0,I,,,,,,,,,,,,,,,,
13504174,2026-07-24,06:22:01.900,46.48361252,106.27277707,59000.27615,1,-16955,13978,51421,0.000,-0.233,0.468,0.05841,-0.04233,1.01835,47.848,0.0,I,,,,,,,,,,,,,,,,
13504274,2026-07-24,06:22:02.000,46.48361252,106.27277707,59000.20930,1,-16928,13960,51395,0.017,-0.241,0.489,0.05851,-0.04289,1.01856,47.840,0.0,G,0.500,2,12,1431.10,-36.00,0.020,0.000, ,,'$GNGGA,062202.00,4629.01701,N,10616.36663,E,2,12,0.50,1431.1,M,-36.0,M,,0129*5F','$GNRMC,062202.00,A,4629.01701,N,10616.36663,E,0.020,,240726,,,D,V*1A',,,,,
13504374,2026-07-24,06:22:02.100,46.48361254,106.27277708,59000.30950,1,-16920,13970,51390,0.011,-0.230,0.465,0.05923,-0.04228,1.01887,47.838,0.0,I,,,,,,,,,,,,,,,,
13504474,2026-07-24,06:22:02.200,46.48361256,106.27277710,59000.34750,1,-16912,13945,51430,-0.019,-0.248,0.486,0.05853,-0.04226,1.01816,47.824,0.0,I,,,,,,,,,,,,,,,,
13504574,2026-07-24,06:22:02.300,46.48361257,106.27277712,59000.29535,1,-16952,13940,51407,0.000,-0.242,0.476,0.05782,-0.04223,1.01827,47.842,0.0,I,,,,,,,,,,,,,,,,
13504674,2026-07-24,06:22:02.400,46.48361259,106.27277713,59000.24885,1,-16970,13940,51511,0.028,-0.238,0.471,0.05774,-0.04269,1.01831,47.804,0.0,I,,,,,,,,,,,,,,,,
13504774,2026-07-24,06:22:02.500,46.48361261,106.27277715,59000.29330,1,-16918,13939,51480,0.005,-0.272,0.478,0.05833,-0.04249,1.01818,47.795,0.0,I,,,,,,,,,,,,,,,,
13504874,2026-07-24,06:22:02.600,46.48361262,106.27277717,59000.31480,1,-16923,13963,51343,0.010,-0.263,0.487,0.05857,-0.04223,1.01874,47.826,0.0,I,,,,,,,,,,,,,,,,
13504974,2026-07-24,06:22:02.700,46.48361264,106.27277718,59000.25255,1,-16962,13967,51459,0.010,-0.244,0.469,0.05806,-0.04252,1.01874,47.859,0.0,I,,,,,,,,,,,,,,,,
13505074,2026-07-24,06:22:02.800,46.48361266,106.27277720,59000.29685,1,-16955,13944,51437,0.003,-0.267,0.480,0.05790,-0.04212,1.01875,47.809,0.0,I,,,,,,,,,,,,,,,,
13505174,2026-07-24,06:22:02.900,46.48361268,106.27277721,59000.27965,1,-16964,13951,51396,0.014,-0.240,0.478,0.05851,-0.04160,1.01843,47.831,0.0,I,,,,,,,,,,,,,,,,
13505274,2026-07-24,06:22:03.000,46.48361269,106.27277723,59000.32700,1,-16914,13973,51551,0.028,-0.223,0.501,0.05800,-0.04210,1.01839,47.828,0.0,G,0.500,2,12,1431.00,-36.00,0.018,0.000, ,,'$GNGGA,062203.00,4629.01702,N,10616.36664,E,2,12,0.50,1431.0,M,-36.0,M,,0129*5B','$GNRMC,062203.00,A,4629.01702,N,10616.36664,E,0.018,,240726,,,D,V*14',,,,,
13505374,2026-07-24,06:22:03.100,46.48361268,106.27277725,59000.37065,1,-16951,13966,51471,0.028,-0.279,0.488,0.05789,-0.04256,1.01853,47.852,0.0,I,,,,,,,,,,,,,,,,
13505474,2026-07-24,06:22:03.200,46.48361266,106.27277726,59000.30690,1,-16969,13944,51465,0.024,-0.249,0.503,0.05831,-0.04226,1.01848,47.848,0.0,I,,,,,,,,,,,,,,,,
13505574,2026-07-24,06:22:03.300,46.48361264,106.27277728,59000.30325,1,-16914,13931,51439,0.010,-0.232,0.512,0.05846,-0.04194,1.01869,47.858,0.0,I,,,,,,,,,,,,,,,,
13505674,2026-07-24,06:22:03.400,46.48361262,106.27277730,59000.35935,1,-16924,13943,51451,-0.018,-0.248,0.487,0.05836,-0.04267,1.01914,47.812,0.0,I,,,,,,,,,,,,,,,,
13505774,2026-07-24,06:22:03.500,46.48361261,106.27277731,59000.33015,1,-16945,13970,51480,0.007,-0.260,0.487,0.05799,-0.04245,1.01859,47.822,0.0,I,,,,,,,,,,,,,,,,
13505874,2026-07-24,06:22:03.600,46.48361259,106.27277733,59000.31090,1,-16934,13960,51464,-0.002,-0.257,0.483,0.05785,-0.04245,1.01929,47.862,0.0,I,,,,,,,,,,,,,,,,
13505974,2026-07-24,06:22:03.700,46.48361257,106.27277735,59000.32610,1,-16888,13952,51460,-0.000,-0.250,0.504,0.05815,-0.04270,1.01879,47.831,0.0,I,,,,,,,,,,,,,,,,
13506074,2026-07-24,06:22:03.800,46.48361256,106.27277737,59000.31805,1,-16946,13929,51470,0.014,-0.242,0.499,0.05814,-0.04211,1.01801,47.854,0.0,I,,,,,,,,,,,,,,,,
13506174,2026-07-24,06:22:03.900,46.48361254,106.27277738,59000.30490,1,-16972,13941,51472,0.023,-0.241,0.480,0.05779,-0.04184,1.01853,47.857,0.0,I,,,,,,,,,,,,,,,,
13506274,2026-07-24,06:22:04.000,46.48361252,106.27277740,59000.32895,1,-16998,13980,51450,0.017,-0.243,0.483,0.05808,-0.04250,1.01865,47.830,0.0,G,0.500,2,12,1431.00,-36.00,0.011,0.000, ,,'$GNGGA,062204.00,4629.01701,N,10616.36665,E,2,12,0.50,1431.0,M,-36.0,M,,0129*5E','$GNRMC,062204.00,A,4629.01701,N,10616.36665,E,0.011,,240726,,,D,V*18',,,,,
13506374,2026-07-24,06:22:04.100,46.48361254,106.27277742,59000.29280,1,-16963,13963,51540,0.020,-0.274,0.501,0.05846,-0.04208,1.01896,47.842,0.0,I,,,,,,,,,,,,,,,,
13506474,2026-07-24,06:22:04.200,46.48361256,106.27277743,59000.31765,1,-16965,13946,51445,0.030,-0.264,0.507,0.05854,-0.04212,1.01869,47.883,0.0,I,,,,,,,,,,,,,,,,
13506574,2026-07-24,06:22:04.300,46.48361257,106.27277745,59000.33790,1,-16961,13985,51402,0.012,-0.246,0.500,0.05800,-0.04243,1.01900,47.836,0.0,I,,,,,,,,,,,,,,,,
13506674,2026-07-24,06:22:04.400,46.48361259,106.27277747,59000.32770,1,-16940,13977,51593,0.016,-0.247,0.490,0.05792,-0.04211,1.01871,47.851,0.0,I,,,,,,,,,,,,,,,,
13506774,2026-07-24,06:22:04.500,46.48361261,106.27277748,59000.29385,1,-16905,13928,51580,0.039,-0.253,0.460,0.05836,-0.04172,1.01850,47.866,0.0,I,,,,,,,,,,,,,,,,
13506874,2026-07-24,06:22:04.600,46.48361262,106.27277750,59000.30900,1,-16950,13954,51497,0.009,-0.238,0.461,0.05856,-0.04214,1.01859,47.865,0.0,I,,,,,,,,,,,,,,,,
13506974,2026-07-24,06:22:04.700,46.48361264,106.27277752,59000.33910,1,-16981,13963,51446,0.024,-0.233,0.487,0.05831,-0.04232,1.01867,47.861,0.0,I,,,,,,,,,,,,,,,,
13507074,2026-07-24,06:22:04.800,46.48361266,106.27277754,59000.33390,1,-16941,13941,51334,0.034,-0.257,0.480,0.05783,-0.04198,1.01860,47.871,0.0,I,,,,,,,,,,,,,,,,
13507174,2026-07-24,06:22:04.900,46.48361267,106.27277755,59000.36315,1,-16946,13978,51468,0.026,-0.246,0.481,0.05778,-0.04233,1.01831,47.818,0.0,I,,,,,,,,,,,,,,,,
13507274,2026-07-24,06:22:05.000,46.48361269,106.27277757,59000.37725,1,-16965,13956,51432,0.003,-0.268,0.495,0.05815,-0.04280,1.01787,47.898,0.0,G,0.500,2,12,1431.00,-36.00,0.033,0.000, ,,'$GNGGA,062205.00,4629.01702,N,10616.36666,E,2,12,0.50,1431.0,M,-36.0,M,,0129*5F','$GNRMC,062205.00,A,4629.01702,N,10616.36666,E,0.033,,240726,,,D,V*19',,,,,
13507374,2026-07-24,06:22:05.100,46.48361271,106.27277760,59000.31285,1,-16943,13918,51353,-0.002,-0.235,0.480,0.05835,-0.04239,1.01849,47.852,0.0,I,,,,,,,,,,,,,,,,
13507474,2026-07-24,06:22:05.200,46.48361273,106.27277764,59000.33095,1,-16976,13940,51428,-0.011,-0.234,0.464,0.05815,-0.04261,1.01863,47.830,0.0,I,,,,,,,,,,,,,,,,
13507574,2026-07-24,06:22:05.300,46.48361274,106.27277767,59000.33955,1,-16973,13949,51382,-0.004,-0.235,0.484,0.05882,-0.04251,1.01864,47.866,0.0,I,,,,,,,,,,,,,,,,
13507674,2026-07-24,06:22:05.400,46.48361276,106.27277770,59000.31700,1,-16966,13957,51392,-0.021,-0.229,0.494,0.05850,-0.04198,1.01847,47.828,0.0,I,,,,,,,,,,,,,,,,
13507774,2026-07-24,06:22:05.500,46.48361278,106.27277773,59000.33045,1,-16951,13984,51400,0.009,-0.243,0.493,0.05823,-0.04219,1.01816,47.873,0.0,I,,,,,,,,,,,,,,,,
13507874,2026-07-24,06:22:05.600,46.48361279,106.27277777,59000.36740,1,-16979,13933,51415,-0.003,-0.234,0.493,0.05827,-0.04216,1.01837,47.869,0.0,I,,,,,,,,,,,,,,,,
13507974,2026-07-24,06:22:05.700,46.48361281,106.27277780,59000.34835,1,-16999,13976,51524,0.001,-0.237,0.479,0.05810,-0.04167,1.01859,47.876,0.0,I,,,,,,,,,,,,,,,,
13508074,2026-07-24,06:22:05.800,46.48361283,106.27277783,59000.30225,1,-16960,13993,51501,0.032,-0.201,0.463,0.05796,-0.04236,1.01835,47.841,0.0,I,,,,,,,,,,,,,,,,
13508174,2026-07-24,06:22:05.900,46.48361285,106.27277787,59000.35480,1,-16957,13949,51376,0.026,-0.231,0.488,0.05781,-0.04267,1.01856,47.863,0.0,I,,,,,,,,,,,,,,,,
13508274,2026-07-24,06:22:06.000,46.48361286,106.27277790,59000.36035,1,-16956,13958,51410,-0.017,-0.265,0.499,0.05805,-0.04243,1.01906,47.926,0.0,G,0.500,2,12,1431.00,-36.00,0.025,0.000, ,,'$GNGGA,062206.00,4629.01703,N,10616.36668,E,2,12,0.50,1431.0,M,-36.0,M,,0129*53','$GNRMC,062206.00,A,4629.01703,N,10616.36668,E,0.025,,240726,,,D,V*12',,,,,
13508374,2026-07-24,06:22:06.100,46.48361286,106.27277792,59000.36870,1,-16961,13961,51467,-0.019,-0.232,0.464,0.05820,-0.04251,1.01859,47.861,0.0,I,,,,,,,,,,,,,,,,
13508474,2026-07-24,06:22:06.200,46.48361286,106.27277793,59000.32280,1,-16938,13942,51500,0.013,-0.228,0.476,0.05839,-0.04208,1.01847,47.864,0.0,I,,,,,,,,,,,,,,,,
13508574,2026-07-24,06:22:06.300,46.48361286,106.27277795,59000.37245,1,-16931,13914,51500,0.026,-0.257,0.508,0.05868,-0.04255,1.01889,47.840,0.0,I,,,,,,,,,,,,,,,,
13508674,2026-07-24,06:22:06.400,46.48361286,106.27277797,59000.37690,1,-16959,13946,51431,0.030,-0.272,0.499,0.05833,-0.04258,1.01869,47.836,0.0,I,,,,,,,,,,,,,,,,
13508774,2026-07-24,06:22:06.500,46.48361286,106.27277798,59000.33195,1,-16970,13970,51399,0.032,-0.257,0.475,0.05819,-0.04252,1.01890,47.862,0.0,I,,,,,,,,,,,,,,,,
13508874,2026-07-24,06:22:06.600,46.48361286,106.27277800,59000.37825,1,-16924,13960,51440,0.012,-0.250,0.474,0.05856,-0.04313,1.01891,47.910,0.0,I,,,,,,,,,,,,,,,,
13508974,2026-07-24,06:22:06.700,46.48361286,106.27277802,59000.36990,1,-16936,13948,51514,0.004,-0.219,0.468,0.05857,-0.04269,1.01884,47.869,0.0,I,,,,,,,,,,,,,,,,
13509074,2026-07-24,06:22:06.800,46.48361286,106.27277804,59000.33405,1,-16952,13947,51439,0.014,-0.226,0.492,0.05805,-0.04187,1.01890,47.871,0.0,I,,,,,,,,,,,,,,,,
13509174,2026-07-24,06:22:06.900,46.48361286,106.27277805,59000.37220,1,-16930,13960,51421,0.005,-0.256,0.485,0.05742,-0.04171,1.01940,47.879,0.0,I,,,,,,,,,,,,,,,,
13509274,2026-07-24,06:22:07.000,46.48361286,106.27277807,59000.38400,1,-16964,13977,51540,0.016,-0.244,0.478,0.05767,-0.04215,1.01928,47.880,0.0,G,0.500,2,12,1430.90,-36.00,0.005,0.000, ,,'$GNGGA,062207.00,4629.01703,N,10616.36669,E,2,12,0.50,1430.9,M,-36.0,M,,0129*5B','$GNRMC,062207.00,A,4629.01703,N,10616.36669,E,0.005,,240726,,,D,V*10',,,,,
13509374,2026-07-24,06:22:07.100,46.48361286,106.27277809,59000.31685,1,-16944,13959,51506,0.025,-0.231,0.467,0.05796,-0.04239,1.01849,47.890,0.0,I,,,,,,,,,,,,,,,,
13509474,2026-07-24,06:22:07.200,46.48361286,106.27277810,59000.36100,1,-16888,13947,51458,0.008,-0.238,0.465,0.05849,-0.04243,1.01837,47.893,0.0,I,,,,,,,,,,,,,,,,
13509574,2026-07-24,06:22:07.300,46.48361286,106.27277812,59000.36985,1,-16917,13939,51507,0.029,-0.248,0.480,0.05823,-0.04255,1.01831,47.895,0.0,I,,,,,,,,,,,,,,,,
13509674,2026-07-24,06:22:07.400,46.48361286,106.27277813,59000.39510,1,-16966,13946,51495,-0.004,-0.260,0.489,0.05779,-0.04227,1.01826,47.897,0.0,I,,,,,,,,,,,,,,,,
13509774,2026-07-24,06:22:07.500,46.48361286,106.27277815,59000.40365,1,-16966,13939,51477,0.006,-0.250,0.471,0.05771,-0.04197,1.01848,47.890,0.0,I,,,,,,,,,,,,,,,,
13509874,2026-07-24,06:22:07.600,46.48361286,106.27277817,59000.37560,1,-16906,13934,51461,0.012,-0.232,0.474,0.05813,-0.04228,1.01857,47.885,0.0,I,,,,,,,,,,,,,,,,
13509974,2026-07-24,06:22:07.700,46.48361286,106.27277818,59000.34115,1,-16941,13937,51366,0.013,-0.265,0.494,0.05864,-0.04208,1.01854,47.840,0.0,I,,,,,,,,,,,,,,,,
13510074,2026-07-24,06:22:07.800,46.48361286,106.27277820,59000.36380,1,-16983,13953,51464,-0.004,-0.263,0.486,0.05814,-0.04244,1.01863,47.920,0.0,I,,,,,,,,,,,,,,,,
13510174,2026-07-24,06:22:07.900,46.48361286,106.27277821,59000.40615,1,-17010,13920,51528,-0.037,-0.253,0.475,0.05786,-0.04224,1.01836,47.908,0.0,I,,,,,,,,,,,,,,,,
13510274,2026-07-24,06:22:08.000,46.48361286,106.27277823,59000.37705,1,-17036,13951,51542,0.002,-0.262,0.492,0.05844,-0.04243,1.01955,47.863,0.0,G,0.500,2,12,1430.90,-36.00,0.009,0.000, ,,'$GNGGA,062208.00,4629.01703,N,10616.36670,E,2,12,0.50,1430.9,M,-36.0,M,,0129*5C','$GNRMC,062208.00,A,4629.01703,N,10616.36670,E,0.009,,240726,,,D,V*1B',,,,,
13510374,2026-07-24,06:22:08.100,46.48361286,106.27277823,59000.37910,1,-16995,13970,51512,0.001,-0.265,0.474,0.05792,-0.04310,1.01980,47.871,0.0,I,,,,,,,,,,,,,,,,
13510474,2026-07-24,06:22:08.200,46.48361286,106.27277823,59000.37480,1,-17001,13943,51474,0.010,-0.254,0.468,0.05780,-0.04372,1.01835,47.914,0.0,I,,,,,,,,,,,,,,,,
13510574,2026-07-24,06:22:08.300,46.48361286,106.27277823,59000.36315,1,-16959,13938,51412,0.026,-0.259,0.499,0.05791,-0.04313,1.01886,47.867,0.0,I,,,,,,,,,,,,,,,,
13510674,2026-07-24,06:22:08.400,46.48361286,106.27277823,59000.37270,1,-16941,13947,51347,0.018,-0.261,0.500,0.05826,-0.04248,1.01888,47.895,0.0,I,,,,,,,,,,,,,,,,
13510774,2026-07-24,06:22:08.500,46.48361286,106.27277823,59000.39780,1,-16957,13937,51417,-0.008,-0.255,0.479,0.05812,-0.04291,1.01852,47.898,0.0,I,,,,,,,,,,,,,,,,
13510874,2026-07-24,06:22:08.600,46.48361286,106.27277823,59000.36110,1,-16942,13953,51370,0.022,-0.226,0.457,0.05778,-0.04199,1.01891,47.914,0.0,I,,,,,,,,,,,,,,,,
13510974,2026-07-24,06:22:08.700,46.48361286,106.27277823,59000.33790,1,-16948,13952,51339,0.011,-0.220,0.460,0.05805,-0.04209,1.01889,47.891,0.0,I,,,,,,,,,,,,,,,,
13511074,2026-07-24,06:22:08.800,46.48361286,106.27277823,59000.37300,1,-16959,13946,51505,0.005,-0.252,0.464,0.05848,-0.04272,1.01924,47.926,0.0,I,,,,,,,,,,,,,,,,
13511174,2026-07-24,06:22:08.900,46.48361286,106.27277823,59000.38490,1,-16937,13979,51499,0.003,-0.249,0.469,0.05815,-0.04244,1.01849,47.883,0.0,I,,,,,,,,,,,,,,,,
13511274,2026-07-24,06:22:09.000,46.48361286,106.27277823,59000.42730,1,-16927,13973,51404,0.022,-0.231,0.481,0.05772,-0.04257,1.01863,47.896,0.0,G,0.500,2,12,1430.80,-36.00,0.010,0.000, ,,'$GNGGA,062209.00,4629.01703,N,10616.36670,E,2,12,0.50,1430.8,M,-36.0,M,,0129*5C','$GNRMC,062209.00,A,4629.01703,N,10616.36670,E,0.010,,240726,,,D,V*12',,,,,
13511374,2026-07-24,06:22:09.100,46.48361288,106.27277825,59000.36055,1,-16982,13952,51430,0.019,-0.246,0.484,0.05767,-0.04222,1.01908,47.920,0.0,I,,,,,,,,,,,,,,,,
13511474,2026-07-24,06:22:09.200,46.48361289,106.27277826,59000.40010,1,-16945,13953,51412,0.000,-0.251,0.483,0.05804,-0.04198,1.01832,47.895,0.0,I,,,,,,,,,,,,,,,,
13511574,2026-07-24,06:22:09.300,46.48361291,106.27277828,59000.47165,1,-16958,13955,51487,0.018,-0.245,0.485,0.05819,-0.04197,1.01917,47.920,0.0,I,,,,,,,,,,,,,,,,
13511674,2026-07-24,06:22:09.400,46.48361293,106.27277830,59000.38685,1,-16978,13923,51419,0.010,-0.250,0.470,0.05815,-0.04240,1.01924,47.900,0.0,I,,,,,,,,,,,,,,,,
13511774,2026-07-24,06:22:09.500,46.48361294,106.27277831,59000.36020,1,-16969,13960,51340,-0.023,-0.266,0.436,0.05800,-0.04315,1.01893,47.934,0.0,I,,,,,,,,,,,,,,,,
13511874,2026-07-24,06:22:09.600,46.48361296,106.27277833,59000.38895,1,-16930,13967,51463,-0.012,-0.266,0.485,0.05837,-0.04262,1.01828,47.895,0.0,I,,,,,,,,,,,,,,,,
13511974,2026-07-24,06:22:09.700,46.48361297,106.27277835,59000.40330,1,-16932,13948,51390,-0.004,-0.238,0.477,0.05820,-0.04197,1.01877,47.918,0.0,I,,,,,,,,,,,,,,,,
13512074,2026-07-24,06:22:09.800,46.48361299,106.27277837,59000.37985,1,-16925,13975,51339,0.006,-0.242,0.475,0.05822,-0.04195,1.01979,47.947,0.0,I,,,,,,,,,,,,,,,,
13512174,2026-07-24,06:22:09.900,46.48361301,106.27277838,59000.42645,1,-16921,13991,51493,-0.008,-0.234,0.496,0.05828,-0.04255,1.01897,47.884,0.0,I,,,,,,,,,,,,,,,,
13512274,2026-07-24,06:22:10.000,46.48361302,106.27277840,59000.41240,1,-16933,13935,51454,0.003,-0.223,0.477,0.05801,-0.04338,1.01782,47.917,0.0,G,0.500,2,12,1430.80,-36.00,0.026,0.000, ,,'$GNGGA,062210.00,4629.01704,N,10616.36671,E,2,12,0.50,1430.8,M,-36.0,M,,0129*52','$GNRMC,062210.00,A,4629.01704,N,10616.36671,E,0.026,,240726,,,D,V*19',,,,,
13512374,2026-07-24,06:22:10.100,46.48361304,106.27277842,59000.37600,1,-16956,13913,51395,0.025,-0.227,0.459,0.05809,-0.04199,1.01835,47.879,0.0,I,,,,,,,,,,,,,,,,
13512474,2026-07-24,06:22:10.200,46.48361306,106.27277843,59000.36195,1,-16950,13928,51389,0.020,-0.243,0.451,0.05837,-0.04137,1.01916,47.881,0.0,I,,,,,,,,,,,,,,,,
13512574,2026-07-24,06:22:10.300,46.48361307,106.27277845,59000.35840,1,-16963,13938,51432,0.033,-0.254,0.495,0.05821,-0.04226,1.01879,47.900,0.0,I,,,,,,,,,,,,,,,,
13512674,2026-07-24,06:22:10.400,46.48361309,106.27277847,59000.37210,1,-16968,13955,51552,0.032,-0.262,0.494,0.05777,-0.04235,1.01885,47.921,0.0,I,,,,,,,,,,,,,,,,
13512774,2026-07-24,06:22:10.500,46.48361311,106.27277848,59000.40030,1,-16927,13964,51486,-0.000,-0.247,0.497,0.05848,-0.04206,1.01857,47.914,0.0,I,,,,,,,,,,,,,,,,
13512874,2026-07-24,06:22:10.600,46.48361312,106.27277850,59000.38555,1,-16908,13950,51491,0.003,-0.260,0.477,0.05837,-0.04245,1.01848,47.867,0.0,I,,,,,,,,,,,,,,,,
13512974,2026-07-24,06:22:10.700,46.48361314,106.27277852,59000.42100,1,-16966,13952,51539,-0.002,-0.247,0.466,0.05778,-0.04270,1.01886,47.920,0.0,I,,,,,,,,,,,,,,,,
13513074,2026-07-24,06:22:10.800,46.48361316,106.27277854,59000.41565,1,-16928,13942,51420,-0.003,-0.227,0.473,0.05813,-0.04163,1.01937,47.941,0.0,I,,,,,,,,,,,,,,,,
13513174,2026-07-24,06:22:10.900,46.48361318,106.27277855,59000.46530,1,-16935,13931,51389,0.001,-0.236,0.469,0.05812,-0.04163,1.01863,47.908,0.0,I,,,,,,,,,,,,,,,,
13513274,2026-07-24,06:22:11.000,46.48361319,106.27277857,59000.43460,1,-16928,13956,51459,0.002,-0.220,0.476,0.05794,-0.04212,1.01855,47.910,0.0,G,0.500,2,12,1430.80,-36.00,0.024,0.000, ,,'$GNGGA,062211.00,4629.01705,N,10616.36672,E,2,12,0.50,1430.8,M,-36.0,M,,0129*51','$GNRMC,062211.00,A,4629.01705,N,10616.36672,E,0.024,,240726,,,D,V*18',,,,,
13513374,2026-07-24,06:22:11.100,46.48361319,106.27277857,59000.36125,1,-16914,13970,51378,0.017,-0.211,0.481,0.05785,-0.04242,1.01923,47.930,0.0,I,,,,,,,,,,,,,,,,
13513474,2026-07-24,06:22:11.200,46.48361319,106.27277857,59000.39750,1,-16944,13949,51380,0.007,-0.231,0.486,0.05817,-0.04311,1.01908,47.909,0.0,I,,,,,,,,,,,,,,,,
13513574,2026-07-24,06:22:11.300,46.48361319,106.27277857,59000.38510,1,-16968,13954,51409,-0.008,-0.255,0.478,0.05865,-0.04324,1.01871,47.957,0.0,I,,,,,,,,,,,,,,,,
13513674,2026-07-24,06:22:11.400,46.48361319,106.27277857,59000.44760,1,-16971,13946,51470,0.025,-0.250,0.479,0.05864,-0.04357,1.01846,47.918,0.0,I,,,,,,,,,,,,,,,,
13513774,2026-07-24,06:22:11.500,46.48361319,106.27277857,59000.43095,1,-16958,13938,51520,-0.007,-0.233,0.499,0.05776,-0.04321,1.01876,47.922,0.0,I,,,,,,,,,,,,,,,,
13513874,2026-07-24,06:22:11.600,46.48361319,106.27277857,59000.39995,1,-16923,13960,51484,-0.032,-0.234,0.503,0.05814,-0.04297,1.01888,47.930,0.0,I,,,,,,,,,,,,,,,,
13513974,2026-07-24,06:22:11.700,46.48361319,106.27277857,59000.41225,1,-16943,13959,51356,-0.028,-0.228,0.493,0.05889,-0.04343,1.01891,47.920,0.0,I,,,,,,,,,,,,,,,,
13514074,2026-07-24,06:22:11.800,46.48361319,106.27277857,59000.35450,1,-16966,13943,51476,-0.004,-0.243,0.479,0.05863,-0.04298,1.01907,47.965,0.0,I,,,,,,,,,,,,,,,,
13514174,2026-07-24,06:22:11.900,46.48361319,106.27277857,59000.37600,1,-16966,13936,51436,0.004,-0.249,0.471,0.05774,-0.04259,1.01939,47.908,0.0,I,,,,,,,,,,,,,,,,
13514274,2026-07-24,06:22:12.000,46.48361319,106.27277857,59000.43465,1,-16938,13950,51343,-0.016,-0.265,0.492,0.05805,-0.04265,1.01873,47.950,0.0,G,0.500,2,12,1430.70,-36.00,0.019,0.000, ,,'$GNGGA,062212.00,4629.01705,N,10616.36672,E,2,12,0.50,1430.7,M,-36.0,M,,0129*5D','$GNRMC,062212.00,A,4629.01705,N,10616.36672,E,0.019,,240726,,,D,V*15',,,,,
13514374,2026-07-24,06:22:12.100,46.48361321,106.27277857,59000.43125,1,-16919,13967,51459,-0.004,-0.244,0.483,0.05818,-0.04260,1.01916,47.945,0.0,I,,,,,,,,,,,,,,,,
13514474,2026-07-24,06:22:12.200,46.48361323,106.27277857,59000.39450,1,-16930,13950,51440,0.034,-0.254,0.468,0.05797,-0.04255,1.01858,47.938,0.0,I,,,,,,,,,,,,,,,,
13514574,2026-07-24,06:22:12.300,46.48361324,106.27277857,59000.41195,1,-16969,13929,51504,-0.003,-0.264,0.476,0.05787,-0.04250,1.01798,47.943,0.0,I,,,,,,,,,,,,,,,,
13514674,2026-07-24,06:22:12.400,46.48361326,106.27277857,59000.42645,1,-16972,13934,51465,-0.008,-0.235,0.478,0.05810,-0.04235,1.01820,47.948,0.0,I,,,,,,,,,,,,,,,,
13514774,2026-07-24,06:22:12.500,46.48361328,106.27277857,59000.38580,1,-16964,13951,51380,0.017,-0.230,0.487,0.05821,-0.04284,1.01899,47.973,0.0,I,,,,,,,,,,,,,,,,
13514874,2026-07-24,06:22:12.600,46.48361329,106.27277857,59000.40565,1,-16947,13961,51412,0.014,-0.222,0.481,0.05785,-0.04296,1.01935,47.947,0.0,I,,,,,,,,,,,,,,,,
13514974,2026-07-24,06:22:12.700,46.48361331,106.27277857,59000.41065,1,-16941,13949,51452,-0.004,-0.230,0.486,0.05846,-0.04274,1.01846,47.932,0.0,I,,,,,,,,,,,,,,,,
13515074,2026-07-24,06:22:12.800,46.48361333,106.27277857,59000.39875,1,-16915,13940,51410,-0.012,-0.281,0.457,0.05797,-0.04325,1.01823,47.895,0.0,I,,,,,,,,,,,,,,,,
13515174,2026-07-24,06:22:12.900,46.48361334,106.27277857,59000.37020,1,-16985,13966,51425,0.006,-0.261,0.466,0.05783,-0.04350,1.01876,47.982,0.0,I,,,,,,,,,,,,,,,,
13515274,2026-07-24,06:22:13.000,46.48361336,106.27277857,59000.40625,1,-16980,13969,51453,0.014,-0.234,0.469,0.05816,-0.04346,1.01876,47.932,0.0,G,0.500,2,12,1430.70,-36.00,0.025,0.000, ,,'$GNGGA,062213.00,4629.01706,N,10616.36672,E,2,12,0.50,1430.7,M,-36.0,M,,0129*5F','$GNRMC,062213.00,A,4629.01706,N,10616.36672,E,0.025,,240726,,,D,V*18',,,,,
13515374,2026-07-24,06:22:13.100,46.48361338,106.27277858,59000.41320,1,-16951,13971,51401,-0.015,-0.261,0.469,0.05856,-0.04329,1.01834,47.932,0.0,I,,,,,,,,,,,,,,,,
13515474,2026-07-24,06:22:13.200,46.48361339,106.27277860,59000.38725,1,-16959,13933,51345,-0.019,-0.230,0.475,0.05849,-0.04315,1.01883,47.957,0.0,I,,,,,,,,,,,,,,,,
13515574,2026-07-24,06:22:13.300,46.48361341,106.27277862,59000.37320,1,-16961,13967,51386,0.004,-0.191,0.473,0.05814,-0.04368,1.01887,47.952,0.0,I,,,,,,,,,,,,,,,,
13515674,2026-07-24,06:22:13.400,46.48361343,106.27277863,59000.37445,1,-16934,13980,51435,0.013,-0.218,0.463,0.05859,-0.04342,1.01858,47.934,0.0,I,,,,,,,,,,,,,,,,
13515774,2026-07-24,06:22:13.500,46.48361344,106.27277865,59000.40775,1,-16915,13940,51533,0.014,-0.244,0.468,0.05815,-0.04340,1.01892,47.980,0.0,I,,,,,,,,,,,,,,,,
13515874,2026-07-24,06:22:13.600,46.48361346,106.27277867,59000.39795,1,-16940,13943,51495,0.007,-0.241,0.468,0.05744,-0.04383,1.01857,48.002,0.0,I,,,,,,,,,,,,,,,,
13515974,2026-07-24,06:22:13.700,46.48361347,106.27277868,59000.38520,1,-16928,13961,51388,-0.007,-0.265,0.480,0.05817,-0.04392,1.01832,47.991,0.0,I,,,,,,,,,,,,,,,,
13516074,2026-07-24,06:22:13.800,46.48361349,106.27277870,59000.32975,1,-16936,13974,51517,-0.024,-0.263,0.468,0.05832,-0.04369,1.01863,47.933,0.0,I,,,,,,,,,,,,,,,,
13516174,2026-07-24,06:22:13.900,46.48361351,106.27277872,59000.32885,1,-16954,13938,51461,0.005,-0.237,0.482,0.05762,-0.04336,1.01939,47.945,0.0,I,,,,,,,,,,,,,,,,
13516274,2026-07-24,06:22:14.000,46.48361352,106.27277873,59000.34105,1,-16975,13951,51401,-0.001,-0.216,0.460,0.05798,-0.04316,1.01934,47.938,0.0,G,0.500,2,12,1430.70,-36.00,0.014,0.000, ,,'$GNGGA,062214.00,4629.01707,N,10616.36673,E,2,12,0.50,1430.7,M,-36.0,M,,0129*58','$GNRMC,062214.00,A,4629.01707,N,10616.36673,E,0.014,,240726,,,D,V*1D',,,,,
13516374,2026-07-24,06:22:14.100,46.48361354,106.27277872,59000.33795,1,-16940,13959,51403,0.000,-0.234,0.474,0.05853,-0.04302,1.01908,47.966,0.0,I,,,,,,,,,,,,,,,,
13516474,2026-07-24,06:22:14.200,46.48361356,106.27277870,59000.35465,1,-16898,13936,51471,0.021,-0.260,0.484,0.05840,-0.04352,1.01903,47.948,0.0,I,,,,,,,,,,,,,,,,
13516574,2026-07-24,06:22:14.300,46.48361357,106.27277868,59000.33865,1,-16937,13941,51424,0.017,-0.237,0.469,0.05833,-0.04344,1.01848,47.922,0.0,I,,,,,,,,,,,,,,,,
13516674,2026-07-24,06:22:14.400,46.48361359,106.27277867,59000.37475,1,-16976,13950,51441,-0.001,-0.240,0.472,0.05844,-0.04302,1.01911,47.967,0.0,I,,,,,,,,,,,,,,,,
13516774,2026-07-24,06:22:14.500,46.48361361,106.27277865,59000.31820,1,-16926,13967,51504,-0.010,-0.260,0.474,0.05861,-0.04338,1.01931,47.941,0.0,I,,,,,,,,,,,,,,,,
13516874,2026-07-24,06:22:14.600,46.48361362,106.27277863,59000.37070,1,-16900,13975,51455,-0.010,-0.257,0.477,0.05836,-0.04337,1.01849,47.968,0.0,I,,,,,,,,,,,,,,,,
13516974,2026-07-24,06:22:14.700,46.48361364,106.27277862,59000.39700,1,-16933,13975,51398,-0.019,-0.242,0.461,0.05794,-0.04251,1.01862,47.963,0.0,I,,,,,,,,,,,,,,,,
13517074,2026-07-24,06:22:14.800,46.48361366,106.27277860,59000.35105,1,-16948,13944,51460,0.021,-0.231,0.455,0.05775,-0.04264,1.01927,47.947,0.0,I,,,,,,,,,,,,,,,,
13517174,2026-07-24,06:22:14.900,46.48361367,106.27277858,59000.35125,1,-16937,13954,51346,0.016,-0.219,0.468,0.05796,-0.04307,1.01950,47.951,0.0,I,,,,,,,,,,,,,,,,
13517274,2026-07-24,06:22:15.000,46.48361369,106.27277857,59000.34645,1,-16979,13963,51383,-0.005,-0.232,0.472,0.05828,-0.04252,1.01948,48.002,0.0,G,0.500,2,12,1430.60,-36.00,0.023,0.000, ,,'$GNGGA,062215.00,4629.01708,N,10616.36672,E,2,12,0.50,1430.6,M,-36.0,M,,0129*56','$GNRMC,062215.00,A,4629.01708,N,10616.36672,E,0.023,,240726,,,D,V*16',,,,,
13517374,2026-07-24,06:22:15.100,46.48361371,106.27277857,59000.37275,1,-16996,13971,51420,-0.004,-0.247,0.482,0.05825,-0.04258,1.01899,47.983,0.0,I,,,,,,,,,,,,,,,,
13517474,2026-07-24,06:22:15.200,46.48361373,106.27277857,59000.41290,1,-16985,13968,51455,-0.010,-0.230,0.468,0.05809,-0.04224,1.01907,47.977,0.0,I,,,,,,,,,,,,,,,,
13517574,2026-07-24,06:22:15.300,46.48361374,106.27277857,59000.38065,1,-16976,13959,51486,-0.004,-0.218,0.476,0.05763,-0.04220,1.01933,47.973,0.0,I,,,,,,,,,,,,,,,,
13517674,2026-07-24,06:22:15.400,46.48361376,106.27277857,59000.37360,1,-16924,13938,51476,-0.012,-0.223,0.469,0.05758,-0.04237,1.01985,47.932,0.0,I,,,,,,,,,,,,,,,,
13517774,2026-07-24,06:22:15.500,46.48361378,106.27277857,59000.44180,1,-16908,13919,51470,0.010,-0.242,0.467,0.05751,-0.04243,1.01923,47.972,0.0,I,,,,,,,,,,,,,,,,
13517874,2026-07-24,06:22:15.600,46.48361379,106.27277857,59000.42225,1,-16960,13944,51494,-0.000,-0.238,0.482,0.05785,-0.04254,1.01888,47.965,0.0,I,,,,,,,,,,,,,,,,
13517974,2026-07-24,06:22:15.700,46.48361381,106.27277857,59000.38405,1,-16946,13953,51492,-0.000,-0.238,0.485,0.05842,-0.04214,1.01908,47.975,0.0,I,,,,,,,,,,,,,,,,
13518074,2026-07-24,06:22:15.800,46.48361383,106.27277857,59000.44090,1,-16947,13978,51427,0.033,-0.220,0.468,0.05857,-0.04232,1.01880,48.014,0.0,I,,,,,,,,,,,,,,,,
13518174,2026-07-24,06:22:15.900,46.48361385,106.27277857,59000.46975,1,-16954,13962,51360,0.031,-0.244,0.471,0.05801,-0.04279,1.01887,47.950,0.0,I,,,,,,,,,,,,,,,,
13518274,2026-07-24,06:22:16.000,46.48361386,106.27277857,59000.44935,1,-16962,13951,51466,0.016,-0.265,0.463,0.05803,-0.04254,1.01976,47.986,0.0,G,0.500,2,12,1430.50,-36.00,0.023,0.000, ,,'$GNGGA,062216.00,4629.01709,N,10616.36672,E,2,12,0.50,1430.5,M,-36.0,M,,0129*57','$GNRMC,062216.00,A,4629.01709,N,10616.36672,E,0.023,,240726,,,D,V*14',,,,,
13518374,2026-07-24,06:22:16.100,46.48361386,106.27277858,59000.45325,1,-16906,13960,51396,0.028,-0.240,0.473,0.05755,-0.04250,1.01954,48.020,0.0,I,,,,,,,,,,,,,,,,
13518474,2026-07-24,06:22:16.200,46.48361386,106.27277860,59000.47485,1,-16907,13964,51351,0.018,-0.219,0.475,0.05727,-0.04252,1.01886,47.973,0.0,I,,,,,,,,,,,,,,,,
13518574,2026-07-24,06:22:16.300,46.48361386,106.27277862,59000.48220,1,-16939,13917,51437,-0.007,-0.212,0.457,0.05809,-0.04248,1.01854,47.983,0.0,I,,,,,,,,,,,,,,,,
13518674,2026-07-24,06:22:16.400,46.48361386,106.27277863,59000.41525,1,-16968,13917,51473,0.010,-0.227,0.478,0.05862,-0.04275,1.01924,47.961,0.0,I,,,,,,,,,,,,,,,,
13518774,2026-07-24,06:22:16.500,46.48361386,106.27277865,59000.43580,1,-16999,13937,51394,0.029,-0.245,0.470,0.05817,-0.04239,1.01934,47.941,0.0,I,,,,,,,,,,,,,,,,
13518874,2026-07-24,06:22:16.600,46.48361386,106.27277867,59000.40565,1,-16919,13960,51361,0.018,-0.247,0.470,0.05816,-0.04245,1.01872,47.954,0.0,I,,,,,,,,,,,,,,,,
13518974,2026-07-24,06:22:16.700,46.48361386,106.27277868,59000.42225,1,-16922,13974,51391,0.010,-0.244,0.474,0.05801,-0.04242,1.01889,47.989,0.0,I,,,,,,,,,,,,,,,,
13519074,2026-07-24,06:22:16.800,46.48361386,106.27277870,59000.46050,1,-16953,13966,51489,0.013,-0.234,0.480,0.05797,-0.04189,1.01902,47.986,0.0,I,,,,,,,,,,,,,,,,
13519174,2026-07-24,06:22:16.900,46.48361386,106.27277871,59000.42485,1,-16954,13956,51459,0.009,-0.210,0.487,0.05782,-0.04243,1.01923,47.998,0.0,I,,,,,,,,,,,,,,,,
13519274,2026-07-24,06:22:17.000,46.48361386,106.27277873,59000.42695,1,-16922,13937,51422,-0.001,-0.206,0.459,0.05777,-0.04261,1.01924,47.971,0.0,G,0.500,2,12,1430.50,-36.00,0.004,0.000, ,,'$GNGGA,062217.00,4629.01709,N,10616.36673,E,2,12,0.50,1430.5,M,-36.0,M,,0129*57','$GNRMC,062217.00,A,4629.01709,N,10616.36673,E,0.004,,240726,,,D,V*11',,,,,
13519374,2026-07-24,06:22:17.100,46.48361386,106.27277873,59000.45750,1,-16923,13947,51486,-0.008,-0.237,0.451,0.05820,-0.04267,1.01898,48.023,0.0,I,,,,,,,,,,,,,,,,
13519474,2026-07-24,06:22:17.200,46.48361386,106.27277873,59000.47600,1,-16969,13957,51457,0.010,-0.246,0.458,0.05789,-0.04226,1.01844,47.972,0.0,I,,,,,,,,,,,,,,,,
13519574,2026-07-24,06:22:17.300,46.48361386,106.27277873,59000.46615,1,-16958,13956,51383,0.005,-0.221,0.464,0.05767,-0.04256,1.01819,48.029,0.0,I,,,,,,,,,,,,,,,,
13519674,2026-07-24,06:22:17.400,46.48361386,106.27277873,59000.41985,1,-16919,13956,51396,-0.013,-0.206,0.485,0.05795,-0.04257,1.01912,47.994,0.0,I,,,,,,,,,,,,,,,,
13519774,2026-07-24,06:22:17.500,46.48361386,106.27277873,59000.40675,1,-16916,13951,51488,0.016,-0.223,0.475,0.05803,-0.04288,1.01896,48.014,0.0,I,,,,,,,,,,,,,,,,
13519874,2026-07-24,06:22:17.600,46.48361386,106.27277873,59000.41365,1,-16909,13949,51447,0.032,-0.249,0.474,0.05792,-0.04290,1.01884,47.989,0.0,I,,,,,,,,,,,,,,,,
13519974,2026-07-24,06:22:17.700,46.48361386,106.27277873,59000.40530,1,-16947,13945,51428,-0.018,-0.259,0.476,0.05763,-0.04245,1.01880,47.984,0.0,I,,,,,,,,,,,,,,,,
13520074,2026-07-24,06:22:17.800,46.48361386,106.27277873,59000.42295,1,-16935,13969,51483,0.000,-0.246,0.467,0.05759,-0.04237,1.01857,48.018,0.0,I,,,,,,,,,,,,,,,,
13520174,2026-07-24,06:22:17.900,46.48361386,106.27277873,59000.45890,1,-16919,13977,51460,0.006,-0.218,0.471,0.05836,-0.04198,1.01875,47.996,0.0,I,,,,,,,,,,,,,,,,
13520274,2026-07-24,06:22:18.000,46.48361386,106.27277873,59000.42485,1,-16970,13952,51402,-0.025,-0.227,0.482,0.05870,-0.04255,1.01911,48.028,0.0,G,0.500,2,12,1430.50,-36.00,0.006,0.000, ,,'$GNGGA,062218.00,4629.01709,N,10616.36673,E,2,12,0.50,1430.5,M,-36.0,M,,0129*58','$GNRMC,062218.00,A,4629.01709,N,10616.36673,E,0.006,,240726,,,D,V*1C',,,,,
13520374,2026-07-24,06:22:18.100,46.48361386,106.27277871,59000.40130,1,-16912,13945,51415,0.002,-0.240,0.488,0.05817,-0.04271,1.01877,47.984,0.0,I,,,,,,,,,,,,,,,,
13520474,2026-07-24,06:22:18.200,46.48361386,106.27277870,59000.41510,1,-16926,13958,51417,-0.003,-0.248,0.473,0.05892,-0.04261,1.01884,47.998,0.0,I,,,,,,,,,,,,,,,,
13520574,2026-07-24,06:22:18.300,46.48361386,106.27277868,59000.40350,1,-16967,13941,51522,0.011,-0.242,0.483,0.05787,-0.04303,1.01931,47.967,0.0,I,,,,,,,,,,,,,,,,
13520674,2026-07-24,06:22:18.400,46.48361386,106.27277867,59000.42590,1,-16952,13934,51537,0.034,-0.241,0.475,0.05827,-0.04260,1.01903,47.982,0.0,I,,,,,,,,,,,,,,,,
13520774,2026-07-24,06:22:18.500,46.48361386,106.27277865,59000.44445,1,-16979,13956,51412,0.011,-0.216,0.471,0.05851,-0.04240,1.01892,47.932,0.0,I,,,,,,,,,,,,,,,,
13520874,2026-07-24,06:22:18.600,46.48361386,106.27277863,59000.39595,1,-16987,13961,51409,-0.004,-0.230,0.476,0.05769,-0.04257,1.01873,48.023,0.0,I,,,,,,,,,,,,,,,,
13520974,2026-07-24,06:22:18.700,46.48361386,106.27277862,59000.39160,1,-16979,13961,51548,0.014,-0.245,0.462,0.05760,-0.04300,1.01926,48.019,0.0,I,,,,,,,,,,,,,,,,
13521074,2026-07-24,06:22:18.800,46.48361386,106.27277860,59000.42015,1,-16952,13977,51469,0.009,-0.225,0.457,0.05770,-0.04304,1.01924,47.987,0.0,I,,,,,,,,,,,,,,,,
13521174,2026-07-24,06:22:18.900,46.48361386,106.27277858,59000.39870,1,-16913,13965,51413,-0.007,-0.219,0.491,0.05817,-0.04217,1.01916,48.018,0.0,I,,,,,,,,,,,,,,,,
13521274,2026-07-24,06:22:19.000,46.48361386,106.27277857,59000.38850,1,-16944,13949,51499,0.003,-0.234,0.499,0.05829,-0.04237,1.01896,47.990,0.0,G,0.500,2,12,1430.50,-36.00,0.016,0.000, ,,'$GNGGA,062219.00,4629.01709,N,10616.36672,E,2,12,0.50,1430.5,M,-36.0,M,,0129*58','$GNRMC,062219.00,A,4629.01709,N,10616.36672,E,0.016,,240726,,,D,V*1D',,,,,
13521374,2026-07-24,06:22:19.100,46.48361385,106.27277857,59000.42235,1,-16934,13938,51400,0.035,-0.252,0.482,0.05819,-0.04231,1.01906,47.984,0.0,I,,,,,,,,,,,,,,,,
13521474,2026-07-24,06:22:19.200,46.48361383,106.27277857,59000.45450,1,-16936,13959,51440,0.017,-0.222,0.489,0.05773,-0.04228,1.01904,47.995,0.0,I,,,,,,,,,,,,,,,,
13521574,2026-07-24,06:22:19.300,46.48361381,106.27277857,59000.40365,1,-16972,13944,51465,-0.017,-0.215,0.485,0.05783,-0.04247,1.01911,47.986,0.0,I,,,,,,,,,,,,,,,,
13521674,2026-07-24,06:22:19.400,46.48361379,106.27277857,59000.36330,1,-16942,13959,51430,-0.005,-0.246,0.498,0.05793,-0.04254,1.01918,48.021,0.0,I,,,,,,,,,,,,,,,,
13521774,2026-07-24,06:22:19.500,46.48361378,106.27277857,59000.44180,1,-16912,13945,51434,0.017,-0.259,0.478,0.05809,-0.04289,1.01908,47.990,0.0,I,,,,,,,,,,,,,,,,
13521874,2026-07-24,06:22:19.600,46.48361376,106.27277857,59000.40685,1,-16920,13929,51396,0.032,-0.222,0.475,0.05790,-0.04280,1.01867,48.046,0.0,I,,,,,,,,,,,,,,,,
13521974,2026-07-24,06:22:19.700,46.48361374,106.27277857,59000.39510,1,-16949,13932,51410,0.018,-0.229,0.484,0.05835,-0.04242,1.01838,48.021,0.0,I,,,,,,,,,,,,,,,,
13522074,2026-07-24,06:22:19.800,46.48361373,106.27277857,59000.43230,1,-16930,13970,51432,0.002,-0.258,0.472,0.05812,-0.04281,1.01881,48.018,0.0,I,,,,,,,,,,,,,,,,
13522174,2026-07-24,06:22:19.900,46.48361371,106.27277857,59000.45965,1,-16964,13991,51453,0.002,-0.247,0.476,0.05815,-0.04275,1.01977,48.021,0.0,I,,,,,,,,,,,,,,,,
13522274,2026-07-24,06:22:20.000,46.48361369,106.27277857,59000.39405,1,-16921,13963,51442,0.028,-0.221,0.446,0.05815,-0.04259,1.01890,48.041,0.0,G,0.500,2,12,1430.50,-36.00,0.015,0.000, ,,'$GNGGA,062220.00,4629.01708,N,10616.36672,E,2,12,0.50,1430.5,M,-36.0,M,,0129*53','$GNRMC,062220.00,A,4629.01708,N,10616.36672,E,0.015,,240726,,,D,V*15',,,,,
13522374,2026-07-24,06:22:20.100,46.48361367,106.27277855,59000.32670,1,-16901,13927,51410,0.030,-0.236,0.440,0.05794,-0.04287,1.01885,48.048,0.0,I,,,,,,,,,,,,,,,,
13522474,2026-07-24,06:22:20.200,46.48361366,106.27277854,59000.39235,1,-16964,13934,51444,0.001,-0.233,0.482,0.05788,-0.04317,1.01939,48.000,0.0,I,,,,,,,,,,,,,,,,
13522574,2026-07-24,06:22:20.300,46.48361364,106.27277852,59000.38935,1,-16964,13973,51525,0.002,-0.234,0.492,0.05801,-0.04279,1.01911,48.016,0.0,I,,,,,,,,,,,,,,,,
13522674,2026-07-24,06:22:20.400,46.48361362,106.27277850,59000.35410,1,-16991,13949,51469,0.004,-0.270,0.472,0.05803,-0.04292,1.01969,48.011,0.0,I,,,,,,,,,,,,,,,,
13522774,2026-07-24,06:22:20.500,46.48361361,106.27277848,59000.41130,1,-16957,13930,51419,-0.020,-0.254,0.453,0.05815,-0.04315,1.01904,48.029,0.0,I,,,,,,,,,,,,,,,,
13522874,2026-07-24,06:22:20.600,46.48361359,106.27277847,59000.40440,1,-16974,13924,51352,-0.010,-0.235,0.461,0.05801,-0.04272,1.01891,48.033,0.0,I,,,,,,,,,,,,,,,,
13522974,2026-07-24,06:22:20.700,46.48361357,106.27277845,59000.39095,1,-16976,13964,51413,0.012,-0.232,0.469,0.05827,-0.04275,1.01901,48.020,0.0,I,,,,,,,,,,,,,,,,
13523074,2026-07-24,06:22:20.800,46.48361356,106.27277843,59000.38780,1,-16927,13970,51363,0.012,-0.237,0.486,0.05829,-0.04260,1.01873,48.077,0.0,I,,,,,,,,,,,,,,,,
13523174,2026-07-24,06:22:20.900,46.48361354,106.27277842,59000.40710,1,-16915,13959,51463,0.007,-0.237,0.464,0.05751,-0.04237,1.01919,48.052,0.0,I,,,,,,,,,,,,,,,,
13523274,2026-07-24,06:22:21.000,46.48361352,106.27277840,59000.38125,1,-16944,13972,51509,0.023,-0.244,0.463,0.05741,-0.04282,1.01907,48.045,0.0,G,0.500,2,12,1430.50,-36.00,0.012,0.000, ,,'$GNGGA,062221.00,4629.01707,N,10616.36671,E,2,12,0.50,1430.5,M,-36.0,M,,0129*5E','$GNRMC,062221.00,A,4629.01707,N,10616.36671,E,0.012,,240726,,,D,V*1F',,,,,
13523374,2026-07-24,06:22:21.100,46.48361351,106.27277840,59000.33285,1,-16954,13958,51443,0.039,-0.244,0.500,0.05779,-0.04285,1.01875,48.049,0.0,I,,,,,,,,,,,,,,,,
13523474,2026-07-24,06:22:21.200,46.48361349,106.27277840,59000.40275,1,-16904,13968,51428,-0.002,-0.244,0.481,0.05806,-0.04258,1.01924,48.020,0.0,I,,,,,,,,,,,,,,,,
13523574,2026-07-24,06:22:21.300,46.48361347,106.27277840,59000.40210,1,-16922,13951,51437,0.011,-0.233,0.473,0.05808,-0.04306,1.01916,48.032,0.0,I,,,,,,,,,,,,,,,,
13523674,2026-07-24,06:22:21.400,46.48361346,106.27277840,59000.38130,1,-16948,13939,51465,0.010,-0.240,0.485,0.05782,-0.04317,1.01930,48.021,0.0,I,,,,,,,,,,,,,,,,
13523774,2026-07-24,06:22:21.500,46.48361344,106.27277840,59000.40505,1,-16918,13962,51468,-0.033,-0.250,0.475,0.05833,-0.04260,1.01935,48.057,0.0,I,,,,,,,,,,,,,,,,
13523874,2026-07-24,06:22:21.600,46.48361343,106.27277840,59000.40615,1,-16943,13994,51444,-0.005,-0.262,0.480,0.05761,-0.04277,1.01874,48.010,0.0,I,,,,,,,,,,,,,,,,
13523974,2026-07-24,06:22:21.700,46.48361341,106.27277840,59000.41240,1,-16956,13969,51467,0.021,-0.250,0.477,0.05794,-0.04291,1.01881,48.024,0.0,I,,,,,,,,,,,,,,,,
13524074,2026-07-24,06:22:21.800,46.48361339,106.27277840,59000.37240,1,-16980,13957,51456,-0.018,-0.217,0.462,0.05793,-0.04287,1.01877,48.030,0.0,I,,,,,,,,,,,,,,,,
13524174,2026-07-24,06:22:21.900,46.48361338,106.27277840,59000.34940,1,-16915,13961,51388,-0.011,-0.233,0.475,0.05757,-0.04297,1.01971,48.068,0.0,I,,,,,,,,,,,,,,,,
13524274,2026-07-24,06:22:22.000,46.48361336,106.27277840,59000.38895,1,-16947,13957,51454,-0.017,-0.237,0.495,0.05849,-0.04304,1.01934,48.016,0.0,G,0.500,2,12,1430.50,-36.00,0.042,0.000, ,,'$GNGGA,062222.00,4629.01706,N,10616.36671,E,2,12,0.50,1430.5,M,-36.0,M,,0129*5C','$GNRMC,062222.00,A,4629.01706,N,10616.36671,E,0.042,,240726,,,D,V*18',,,,,
13524374,2026-07-24,06:22:22.100,46.48361334,106.27277838,59000.35950,1,-16961,13977,51457,-0.006,-0.247,0.475,0.05872,-0.04305,1.01834,48.037,0.0,I,,,,,,,,,,,,,,,,
13524474,2026-07-24,06:22:22.200,46.48361333,106.27277837,59000.36280,1,-16908,13965,51459,0.002,-0.225,0.452,0.05841,-0.04265,1.01911,48.052,0.0,I,,,,,,,,,,,,,,,,
13524574,2026-07-24,06:22:22.300,46.48361331,106.27277835,59000.39570,1,-16947,13931,51478,-0.004,-0.238,0.458,0.05807,-0.04183,1.01966,48.062,0.0,I,,,,,,,,,,,,,,,,
13524674,2026-07-24,06:22:22.400,46.48361329,106.27277833,59000.41195,1,-16980,13962,51430,-0.009,-0.254,0.477,0.05759,-0.04225,1.01899,48.039,0.0,I,,,,,,,,,,,,,,,,
13524774,2026-07-24,06:22:22.500,46.48361328,106.27277831,59000.36610,1,-16918,13984,51426,-0.005,-0.234,0.482,0.05811,-0.04258,1.01912,48.046,0.0,I,,,,,,,,,,,,,,,,
13524874,2026-07-24,06:22:22.600,46.48361326,106.27277830,59000.31790,1,-16904,13939,51466,-0.008,-0.249,0.464,0.05832,-0.04230,1.01938,48.056,0.0,I,,,,,,,,,,,,,,,,
13524974,2026-07-24,06:22:22.700,46.48361324,106.27277828,59000.36105,1,-16929,13940,51343,0.031,-0.248,0.470,0.05863,-0.04217,1.01955,48.027,0.0,I,,,,,,,,,,,,,,,,
13525074,2026-07-24,06:22:22.800,46.48361323,106.27277826,59000.36320,1,-16956,13960,51406,0.018,-0.255,0.505,0.05781,-0.04232,1.01991,48.055,0.0,I,,,,,,,,,,,,,,,,
13525174,2026-07-24,06:22:22.900,46.48361321,106.27277824,59000.40130,1,-16992,13935,51439,-0.021,-0.238,0.461,0.05770,-0.04269,1.01987,48.016,0.0,I,,,,,,,,,,,,,,,,
13525274,2026-07-24,06:22:23.000,46.48361319,106.27277823,59000.38720,1,-16974,13954,51464,-0.007,-0.254,0.463,0.05831,-0.04322,1.01975,48.080,0.0,G,0.500,2,12,1430.50,-36.00,0.001,0.000, ,,'$GNGGA,062223.00,4629.01705,N,10616.36670,E,2,12,0.50,1430.5,M,-36.0,M,,0129*5F','$GNRMC,062223.00,A,4629.01705,N,10616.36670,E,0.001,,240726,,,D,V*1C',,,,,
13525374,2026-07-24,06:22:23.100,46.48361319,106.27277824,59000.36860,1,-16969,13970,51447,0.016,-0.290,0.474,0.05852,-0.04332,1.01926,48.059,0.0,I,,,,,,,,,,,,,,,,
13525474,2026-07-24,06:22:23.200,46.48361319,106.27277826,59000.34215,1,-16945,13941,51474,0.006,-0.251,0.473,0.05846,-0.04262,1.01858,48.025,0.0,I,,,,,,,,,,,,,,,,
13525574,2026-07-24,06:22:23.300,46.48361319,106.27277828,59000.33365,1,-16938,13948,51473,-0.010,-0.230,0.493,0.05812,-0.04309,1.01880,48.020,0.0,I,,,,,,,,,,,,,,,,
13525674,2026-07-24,06:22:23.400,46.48361319,106.27277830,59000.33405,1,-16940,13954,51461,0.040,-0.243,0.494,0.05792,-0.04323,1.01902,48.077,0.0,I,,,,,,,,,,,,,,,,
13525774,2026-07-24,06:22:23.500,46.48361319,106.27277831,59000.33735,1,-16901,13952,51453,0.008,-0.249,0.482,0.05818,-0.04257,1.01904,48.068,0.0,I,,,,,,,,,,,,,,,,
13525874,2026-07-24,06:22:23.600,46.48361319,106.27277833,59000.34455,1,-16938,13946,51388,-0.010,-0.250,0.492,0.05830,-0.04194,1.01903,48.059,0.0,I,,,,,,,,,,,,,,,,
13525974,2026-07-24,06:22:23.700,46.48361319,106.27277835,59000.35080,1,-16941,13963,51398,0.014,-0.267,0.475,0.05805,-0.04242,1.01927,48.045,0.0,I,,,,,,,,,,,,,,,,
13526074,2026-07-24,06:22:23.800,46.48361319,106.27277837,59000.35665,1,-16971,13959,51444,-0.011,-0.258,0.448,0.05761,-0.04309,1.01913,48.086,0.0,I,,,,,,,,,,,,,,,,
13526174,2026-07-24,06:22:23.900,46.48361319,106.27277838,59000.34870,1,-16955,13956,51461,0.013,-0.256,0.446,0.05822,-0.04272,1.01909,48.086,0.0,I,,,,,,,,,,,,,,,,
13526274,2026-07-24,06:22:24.000,46.48361319,106.27277840,59000.37275,1,-16884,13957,51406,0.024,-0.241,0.478,0.05778,-0.04295,1.01897,48.008,0.0,G,0.500,2,12,1430.50,-36.00,0.014,0.000, ,,'$GNGGA,062224.00,4629.01705,N,10616.36671,E,2,12,0.50,1430.5,M,-36.0,M,,0129*59','$GNRMC,062224.00,A,4629.01705,N,10616.36671,E,0.014,,240726,,,D,V*1E',,,,,
13526374,2026-07-24,06:22:24.100,46.48361318,106.27277840,59000.32710,1,-16925,13964,51401,0.021,-0.219,0.489,0.05753,-0.04280,1.01913,48.037,0.0,I,,,,,,,,,,,,,,,,
13526474,2026-07-24,06:22:24.200,46.48361316,106.27277840,59000.31100,1,-16982,13939,51427,0.022,-0.243,0.461,0.05809,-0.04249,1.01922,48.073,0.0,I,,,,,,,,,,,,,,,,
13526574,2026-07-24,06:22:24.300,46.48361314,106.27277840,59000.37365,1,-16982,13931,51428,0.003,-0.240,0.457,0.05798,-0.04239,1.01892,48.064,0.0,I,,,,,,,,,,,,,,,,
13526674,2026-07-24,06:22:24.400,46.48361312,106.27277840,59000.36900,1,-16930,13929,51398,0.004,-0.228,0.475,0.05800,-0.04279,1.01858,48.055,0.0,I,,,,,,,,,,,,,,,,
13526774,2026-07-24,06:22:24.500,46.48361311,106.27277840,59000.42635,1,-16937,13918,51408,-0.002,-0.232,0.489,0.05828,-0.04303,1.01900,48.061,0.0,I,,,,,,,,,,,,,,,,
13526874,2026-07-24,06:22:24.600,46.48361309,106.27277840,59000.36260,1,-16936,13912,51406,0.030,-0.245,0.491,0.05791,-0.04243,1.01956,48.084,0.0,I,,,,,,,,,,,,,,,,
13526974,2026-07-24,06:22:24.700,46.48361307,106.27277840,59000.32040,1,-16919,13951,51443,0.028,-0.220,0.494,0.05783,-0.04240,1.01912,48.081,0.0,I,,,,,,,,,,,,,,,,
13527074,2026-07-24,06:22:24.800,46.48361306,106.27277840,59000.34240,1,-16915,13987,51466,-0.011,-0.232,0.487,0.05872,-0.04202,1.01918,48.049,0.0,I,,,,,,,,,,,,,,,,
13527174,2026-07-24,06:22:24.900,46.48361304,106.27277840,59000.36795,1,-16950,13955,51360,0.024,-0.244,0.457,0.05833,-0.04198,1.01938,48.045,0.0,I,,,,,,,,,,,,,,,,
13527274,2026-07-24,06:22:25.000,46.48361302,106.27277840,59000.32530,1,-16974,13968,51441,0.037,-0.250,0.465,0.05774,-0.04249,1.01937,48.088,0.0,G,0.500,2,12,1430.50,-36.00,0.009,0.000, ,,'$GNGGA,062225.00,4629.01704,N,10616.36671,E,2,12,0.50,1430.5,M,-36.0,M,,0129*59','$GNRMC,062225.00,A,4629.01704,N,10616.36671,E,0.009,,240726,,,D,V*12',,,,,
13527374,2026-07-24,06:22:25.100,46.48361302,106.27277838,59000.29990,1,-16957,13984,51571,0.016,-0.248,0.479,0.05799,-0.04259,1.01934,48.098,0.0,I,,,,,,,,,,,,,,,,
13527474,2026-07-24,06:22:25.200,46.48361302,106.27277837,59000.30415,1,-16934,13972,51419,0.001,-0.228,0.486,0.05766,-0.04250,1.01878,48.090,0.0,I,,,,,,,,,,,,,,,,
13527574,2026-07-24,06:22:25.300,46.48361302,106.27277835,59000.31620,1,-16891,13952,51360,-0.007,-0.239,0.470,0.05770,-0.04234,1.01869,48.064,0.0,I,,,,,,,,,,,,,,,,
13527674,2026-07-24,06:22:25.400,46.48361302,106.27277833,59000.28425,1,-16882,13969,51405,0.015,-0.229,0.502,0.05795,-0.04272,1.01863,48.029,0.0,I,,,,,,,,,,,,,,,,
13527774,2026-07-24,06:22:25.500,46.48361302,106.27277831,59000.29860,1,-16955,13952,51376,-0.001,-0.216,0.503,0.05819,-0.04242,1.01973,48.109,0.0,I,,,,,,,,,,,,,,,,
13527874,2026-07-24,06:22:25.600,46.48361302,106.27277830,59000.36525,1,-16978,13940,51380,0.011,-0.246,0.481,0.05791,-0.04246,1.01971,48.109,0.0,I,,,,,,,,,,,,,,,,
13527974,2026-07-24,06:22:25.700,46.48361302,106.27277828,59000.39240,1,-16910,13959,51471,0.003,-0.243,0.474,0.05813,-0.04255,1.01879,48.105,0.0,I,,,,,,,,,,,,,,,,
13528074,2026-07-24,06:22:25.800,46.48361302,106.27277826,59000.29670,1,-16902,13955,51433,0.009,-0.225,0.500,0.05763,-0.04284,1.01947,48.084,0.0,I,,,,,,,,,,,,,,,,
13528174,2026-07-24,06:22:25.900,46.48361302,106.27277825,59000.27375,1,-16925,13954,51380,0.008,-0.230,0.494,0.05788,-0.04300,1.01945,48.105,0.0,I,,,,,,,,,,,,,,,,
13528274,2026-07-24,06:22:26.000,46.48361302,106.27277823,59000.32230,1,-16968,13951,51464,-0.010,-0.248,0.475,0.05848,-0.04305,1.01871,48.122,0.0,G,0.500,2,12,1430.50,-36.00,0.020,0.000, ,,'$GNGGA,062226.00,4629.01704,N,10616.36670,E,2,12,0.50,1430.5,M,-36.0,M,,0129*5B','$GNRMC,062226.00,A,4629.01704,N,10616.36670,E,0.020,,240726,,,D,V*1B',,,,,
13528374,2026-07-24,06:22:26.100,46.48361302,106.27277823,59000.33440,1,-16962,13952,51450,0.004,-0.238,0.483,0.05802,-0.04340,1.01901,48.104,0.0,I,,,,,,,,,,,,,,,,
13528474,2026-07-24,06:22:26.200,46.48361302,106.27277823,59000.35365,1,-16916,13944,51324,0.025,-0.231,0.445,0.05798,-0.04308,1.01929,48.055,0.0,I,,,,,,,,,,,,,,,,
13528574,2026-07-24,06:22:26.300,46.48361302,106.27277823,59000.32560,1,-16916,13964,51444,0.024,-0.259,0.452,0.05806,-0.04245,1.01910,48.120,0.0,I,,,,,,,,,,,,,,,,
13528674,2026-07-24,06:22:26.400,46.48361302,106.27277823,59000.35255,1,-16947,13950,51532,0.011,-0.261,0.475,0.05808,-0.04259,1.01944,48.060,0.0,I,,,,,,,,,,,,,,,,
13528774,2026-07-24,06:22:26.500,46.48361302,106.27277823,59000.31865,1,-16920,13925,51533,0.001,-0.234,0.482,0.05804,-0.04282,1.01960,48.127,0.0,I,,,,,,,,,,,,,,,,
13528874,2026-07-24,06:22:26.600,46.48361302,106.27277823,59000.29560,1,-16919,13944,51452,0.015,-0.238,0.468,0.05796,-0.04233,1.01925,48.102,0.0,I,,,,,,,,,,,,,,,,
13528974,2026-07-24,06:22:26.700,46.48361302,106.27277823,59000.34110,1,-16921,13939,51437,0.041,-0.250,0.475,0.05791,-0.04284,1.01924,48.087,0.0,I,,,,,,,,,,,,,,,,
13529074,2026-07-24,06:22:26.800,46.48361302,106.27277823,59000.32185,1,-16906,13973,51432,0.020,-0.240,0.468,0.05794,-0.04312,1.01938,48.114,0.0,I,,,,,,,,,,,,,,,,
13529174,2026-07-24,06:22:26.900,46.48361302,106.27277823,59000.32035,1,-16944,13992,51458,-0.001,-0.233,0.461,0.05809,-0.04354,1.01944,48.088,0.0,I,,,,,,,,,,,,,,,,
13529274,2026-07-24,06:22:27.000,46.48361302,106.27277823,59000.29500,1,-16983,13947,51336,0.021,-0.258,0.484,0.05749,-0.04399,1.01935,48.078,0.0,G,0.500,2,12,1430.50,-36.00,0.022,0.000, ,,'$GNGGA,062227.00,4629.01704,N,10616.36670,E,2,12,0.50,1430.5,M,-36.0,M,,0129*5A','$GNRMC,062227.00,A,4629.01704,N,10616.36670,E,0.022,,240726,,,D,V*18',,,,,
13529374,2026-07-24,06:22:27.100,46.48361302,106.27277821,59000.31975,1,-16955,13953,51365,0.006,-0.276,0.477,0.05788,-0.04372,1.01907,48.111,0.0,I,,,,,,,,,,,,,,,,
13529474,2026-07-24,06:22:27.200,46.48361302,106.27277820,59000.35270,1,-16955,13966,51348,-0.018,-0.259,0.486,0.05806,-0.04378,1.01940,48.107,0.0,I,,,,,,,,,,,,,,,,
13529574,2026-07-24,06:22:27.300,46.48361302,106.27277818,59000.30055,1,-16949,13959,51399,-0.004,-0.236,0.471,0.05785,-0.04350,1.01971,48.092,0.0,I,,,,,,,,,,,,,,,,
13529674,2026-07-24,06:22:27.400,46.48361302,106.27277817,59000.32905,1,-16930,13953,51454,-0.012,-0.229,0.466,0.05805,-0.04354,1.01888,48.088,0.0,I,,,,,,,,,,,,,,,,
13529774,2026-07-24,06:22:27.500,46.48361302,106.27277815,59000.30255,1,-16976,13970,51503,0.005,-0.233,0.501,0.05825,-0.04251,1.01922,48.066,0.0,I,,,,,,,,,,,,,,,,
13529874,2026-07-24,06:22:27.600,46.48361302,106.27277813,59000.26785,1,-16974,13961,51379,0.012,-0.217,0.478,0.05785,-0.04276,1.01930,48.090,0.0,I,,,,,,,,,,,,,,,,
13529974,2026-07-24,06:22:27.700,46.48361302,106.27277812,59000.29150,1,-16955,13955,51432,0.010,-0.241,0.463,0.05795,-0.04334,1.01918,48.119,0.0,I,,,,,,,,,,,,,,,,
13530074,2026-07-24,06:22:27.800,46.48361302,106.27277810,59000.29625,1,-16969,13944,51473,0.032,-0.233,0.475,0.05816,-0.04261,1.01893,48.117,0.0,I,,,,,,,,,,,,,,,,
13530174,2026-07-24,06:22:27.900,46.48361302,106.27277809,59000.27765,1,-16970,13937,51335,-0.010,-0.261,0.478,0.05777,-0.04211,1.01935,48.053,0.0,I,,,,,,,,,,,,,,,,
13530274,2026-07-24,06:22:28.000,46.48361302,106.27277807,59000.27215,1,-16988,13958,51404,-0.016,-0.267,0.483,0.05786,-0.04277,1.01938,48.099,0.0,G,0.500,2,12,1430.40,-36.00,0.023,0.000, ,,'$GNGGA,062228.00,4629.01704,N,10616.36669,E,2,12,0.50,1430.4,M,-36.0,M,,0129*5C','$GNRMC,062228.00,A,4629.01704,N,10616.36669,E,0.023,,240726,,,D,V*1E',,,,,
13530374,2026-07-24,06:22:28.100,46.48361302,106.27277805,59000.26430,1,-16956,13992,51436,0.034,-0.233,0.466,0.05800,-0.04298,1.01946,48.129,0.0,I,,,,,,,,,,,,,,,,
13530474,2026-07-24,06:22:28.200,46.48361302,106.27277804,59000.23560,1,-16925,13954,51382,-0.006,-0.235,0.467,0.05811,-0.04237,1.01891,48.100,0.0,I,,,,,,,,,,,,,,,,
13530574,2026-07-24,06:22:28.300,46.48361302,106.27277802,59000.27080,1,-16885,13952,51379,-0.023,-0.246,0.475,0.05742,-0.04236,1.01886,48.113,0.0,I,,,,,,,,,,,,,,,,
13530674,2026-07-24,06:22:28.400,46.48361302,106.27277800,59000.29400,1,-16927,13979,51413,0.029,-0.238,0.501,0.05789,-0.04274,1.01911,48.108,0.0,I,,,,,,,,,,,,,,,,
13530774,2026-07-24,06:22:28.500,46.48361302,106.27277798,59000.31045,1,-16937,13974,51419,0.032,-0.258,0.489,0.05825,-0.04298,1.01934,48.087,0.0,I,,,,,,,,,,,,,,,,
13530874,2026-07-24,06:22:28.600,46.48361302,106.27277797,59000.26290,1,-16962,13993,51369,0.043,-0.257,0.467,0.05790,-0.04271,1.01951,48.098,0.0,I,,,,,,,,,,,,,,,,
13530974,2026-07-24,06:22:28.700,46.48361302,106.27277795,59000.21095,1,-16995,13937,51401,0.013,-0.240,0.461,0.05825,-0.04274,1.01938,48.113,0.0,I,,,,,,,,,,,,,,,,
13531074,2026-07-24,06:22:28.800,46.48361302,106.27277793,59000.23225,1,-16962,13949,51444,-0.022,-0.224,0.472,0.05795,-0.04300,1.01943,48.111,0.0,I,,,,,,,,,,,,,,,,
13531174,2026-07-24,06:22:28.900,46.48361302,106.27277792,59000.26825,1,-16939,13978,51403,-0.018,-0.225,0.458,0.05812,-0.04237,1.01903,48.158,0.0,I,,,,,,,,,,,,,,,,
13531274,2026-07-24,06:22:29.000,46.48361302,106.27277790,59000.24135,1,-16896,13953,51485,-0.002,-0.249,0.468,0.05799,-0.04239,1.01858,48.100,0.0,G,0.500,2,12,1430.40,-36.00,0.021,0.000, ,,'$GNGGA,062229.00,4629.01704,N,10616.36668,E,2,12,0.50,1430.4,M,-36.0,M,,0129*5C','$GNRMC,062229.00,A,4629.01704,N,10616.36668,E,0.021,,240726,,,D,V*1C',,,,,
13531374,2026-07-24,06:22:29.100,46.48361302,106.27277790,59000.24535,1,-16916,13938,51470,0.006,-0.250,0.467,0.05782,-0.04324,1.01882,48.107,0.0,I,,,,,,,,,,,,,,,,
13531474,2026-07-24,06:22:29.200,46.48361302,106.27277790,59000.26815,1,-16936,13936,51443,0.001,-0.220,0.469,0.05769,-0.04252,1.01914,48.123,0.0,I,,,,,,,,,,,,,,,,
13531574,2026-07-24,06:22:29.300,46.48361302,106.27277790,59000.30280,1,-16891,13951,51437,0.020,-0.224,0.478,0.05775,-0.04208,1.01929,48.122,0.0,I,,,,,,,,,,,,,,,,
13531674,2026-07-24,06:22:29.400,46.48361302,106.27277790,59000.23445,1,-16894,13968,51495,0.034,-0.226,0.467,0.05809,-0.04245,1.01992,48.124,0.0,I,,,,,,,,,,,,,,,,
13531774,2026-07-24,06:22:29.500,46.48361302,106.27277790,59000.19455,1,-16969,13960,51505,0.018,-0.246,0.437,0.05763,-0.04244,1.01920,48.092,0.0,I,,,,,,,,,,,,,,,,
13531874,2026-07-24,06:22:29.600,46.48361302,106.27277790,59000.25690,1,-16937,13967,51401,0.022,-0.232,0.455,0.05754,-0.04293,1.01848,48.115,0.0,I,,,,,,,,,,,,,,,,
13531974,2026-07-24,06:22:29.700,46.48361302,106.27277790,59000.26265,1,-16905,13964,51381,0.018,-0.211,0.473,0.05812,-0.04332,1.01933,48.123,0.0,I,,,,,,,,,,,,,,,,
13532074,2026-07-24,06:22:29.800,46.48361302,106.27277790,59000.26830,1,-16928,13925,51396,0.013,-0.253,0.495,0.05863,-0.04298,1.01918,48.143,0.0,I,,,,,,,,,,,,,,,,
13532174,2026-07-24,06:22:29.900,46.48361302,106.27277790,59000.26620,1,-16991,13952,51463,0.037,-0.241,0.457,0.05814,-0.04292,1.01904,48.154,0.0,I,,,,,,,,,,,,,,,,
13532274,2026-07-24,06:22:30.000,46.48361302,106.27277790,59000.24835,1,-16990,13976,51467,0.024,-0.237,0.443,0.05813,-0.04241,1.01915,48.096,0.0,G,0.500,2,12,1430.40,-36.00,0.021,0.000, ,,'$GNGGA,062230.00,4629.01704,N,10616.36668,E,2,12,0.50,1430.4,M,-36.0,M,,0129*54','$GNRMC,062230.00,A,4629.01704,N,10616.36668,E,0.021,,240726,,,D,V*14',,,,,
13532374,2026-07-24,06:22:30.100,46.48361301,106.27277788,59000.23820,1,-16952,13967,51479,-0.006,-0.250,0.462,0.05856,-0.04278,1.01912,48.127,0.0,I,,,,,,,,,,,,,,,,
13532474,2026-07-24,06:22:30.200,46.48361299,106.27277787,59000.24110,1,-16904,13956,51418,0.014,-0.251,0.481,0.05842,-0.04338,1.01958,48.191,0.0,I,,,,,,,,,,,,,,,,
13532574,2026-07-24,06:22:30.300,46.48361297,106.27277785,59000.25895,1,-16946,13930,51427,0.059,-0.253,0.481,0.05855,-0.04317,1.01908,48.109,0.0,I,,,,,,,,,,,,,,,,
13532674,2026-07-24,06:22:30.400,46.48361296,106.27277783,59000.24105,1,-16905,13954,51429,0.030,-0.238,0.498,0.05755,-0.04307,1.01879,48.150,0.0,I,,,,,,,,,,,,,,,,
13532774,2026-07-24,06:22:30.500,46.48361294,106.27277781,59000.27395,1,-16922,13951,51391,0.008,-0.229,0.485,0.05783,-0.04290,1.01885,48.123,0.0,I,,,,,,,,,,,,,,,,
13532874,2026-07-24,06:22:30.600,46.48361293,106.27277780,59000.24010,1,-16954,13921,51353,0.013,-0.219,0.447,0.05839,-0.04330,1.01921,48.131,0.0,I,,,,,,,,,,,,,,,,
13532974,2026-07-24,06:22:30.700,46.48361291,106.27277778,59000.21260,1,-16939,13915,51410,-0.001,-0.218,0.464,0.05817,-0.04321,1.01980,48.123,0.0,I,,,,,,,,,,,,,,,,
13533074,2026-07-24,06:22:30.800,46.48361289,106.27277776,59000.21975,1,-16955,13958,51412,0.001,-0.235,0.493,0.05783,-0.04291,1.01915,48.180,0.0,I,,,,,,,,,,,,,,,,
13533174,2026-07-24,06:22:30.900,46.48361288,106.27277775,59000.28225,1,-16943,13973,51431,-0.003,-0.245,0.496,0.05798,-0.04243,1.01888,48.111,0.0,I,,,,,,,,,,,,,,,,
13533274,2026-07-24,06:22:31.000,46.48361286,106.27277773,59000.22995,1,-16957,13975,51463,-0.017,-0.262,0.452,0.05749,-0.04295,1.01931,48.169,0.0,G,0.500,2,12,1430.40,-36.00,0.025,0.000, ,,'$GNGGA,062231.00,4629.01703,N,10616.36667,E,2,12,0.50,1430.4,M,-36.0,M,,0129*5D','$GNRMC,062231.00,A,4629.01703,N,10616.36667,E,0.025,,240726,,,D,V*19',,,,,
13533374,2026-07-24,06:22:31.100,46.48361286,106.27277771,59000.22110,1,-16941,13960,51477,0.007,-0.262,0.456,0.05828,-0.04346,1.01938,48.086,0.0,I,,,,,,,,,,,,,,,,
13533474,2026-07-24,06:22:31.200,46.48361286,106.27277770,59000.23035,1,-16962,13934,51470,-0.022,-0.230,0.462,0.05826,-0.04330,1.01958,48.105,0.0,I,,,,,,,,,,,,,,,,
13533574,2026-07-24,06:22:31.300,46.48361286,106.27277768,59000.24805,1,-16929,13938,51379,-0.031,-0.253,0.467,0.05793,-0.04264,1.01928,48.113,0.0,I,,,,,,,,,,,,,,,,
13533674,2026-07-24,06:22:31.400,46.48361286,106.27277767,59000.21220,1,-16900,13976,51374,0.020,-0.245,0.490,0.05794,-0.04222,1.01922,48.131,0.0,I,,,,,,,,,,,,,,,,
13533774,2026-07-24,06:22:31.500,46.48361286,106.27277765,59000.18275,1,-16967,13946,51475,0.000,-0.247,0.500,0.05804,-0.04235,1.02014,48.120,0.0,I,,,,,,,,,,,,,,,,
13533874,2026-07-24,06:22:31.600,46.48361286,106.27277763,59000.19785,1,-16959,13923,51494,-0.009,-0.244,0.476,0.05803,-0.04304,1.01924,48.135,0.0,I,,,,,,,,,,,,,,,,
13533974,2026-07-24,06:22:31.700,46.48361286,106.27277762,59000.24525,1,-16946,13935,51475,-0.016,-0.261,0.455,0.05823,-0.04282,1.01805,48.146,0.0,I,,,,,,,,,,,,,,,,
13534074,2026-07-24,06:22:31.800,46.48361286,106.27277760,59000.24905,1,-16947,13942,51524,-0.012,-0.265,0.477,0.05800,-0.04329,1.01910,48.171,0.0,I,,,,,,,,,,,,,,,,
13534174,2026-07-24,06:22:31.900,46.48361286,106.27277758,59000.22730,1,-16962,13940,51538,0.013,-0.219,0.469,0.05749,-0.04310,1.01979,48.146,0.0,I,,,,,,,,,,,,,,,,
13534274,2026-07-24,06:22:32.000,46.48361286,106.27277757,59000.22725,1,-16990,13935,51438,0.048,-0.219,0.495,0.05798,-0.04269,1.01954,48.164,0.0,G,0.500,2,12,1430.30,-36.00,0.010,0.000, ,,'$GNGGA,062232.00,4629.01703,N,10616.36666,E,2,12,0.50,1430.3,M,-36.0,M,,0129*58','$GNRMC,062232.00,A,4629.01703,N,10616.36666,E,0.010,,240726,,,D,V*1D',,,,,
13534374,2026-07-24,06:22:32.100,46.48361286,106.27277757,59000.24910,1,-16974,13939,51426,0.048,-0.250,0.505,0.05833,-0.04264,1.01922,48.184,0.0,I,,,,,,,,,,,,,,,,
13534474,2026-07-24,06:22:32.200,46.48361286,106.27277757,59000.26305,1,-16912,13923,51440,0.044,-0.231,0.483,0.05840,-0.04253,1.01900,48.133,0.0,I,,,,,,,,,,,,,,,,
13534574,2026-07-24,06:22:32.300,46.48361286,106.27277757,59000.20990,1,-16913,13940,51518,0.041,-0.235,0.467,0.05833,-0.04262,1.01939,48.171,0.0,I,,,,,,,,,,,,,,,,
13534674,2026-07-24,06:22:32.400,46.48361286,106.27277757,59000.20365,1,-16938,13954,51395,-0.005,-0.240,0.465,0.05803,-0.04230,1.01933,48.154,0.0,I,,,,,,,,,,,,,,,,
13534774,2026-07-24,06:22:32.500,46.48361286,106.27277757,59000.21045,1,-16957,13947,51363,-0.014,-0.224,0.491,0.05797,-0.04238,1.01983,48.191,0.0,I,,,,,,,,,,,,,,,,
13534874,2026-07-24,06:22:32.600,46.48361286,106.27277757,59000.22560,1,-16961,13962,51422,0.027,-0.238,0.488,0.05782,-0.04284,1.02030,48.190,0.0,I,,,,,,,,,,,,,,,,
13534974,2026-07-24,06:22:32.700,46.48361286,106.27277757,59000.21420,1,-16965,13949,51557,0.025,-0.257,0.474,0.05743,-0.04281,1.01923,48.150,0.0,I,,,,,,,,,,,,,,,,
13535074,2026-07-24,06:22:32.800,46.48361286,106.27277757,59000.21250,1,-16948,13949,51438,0.003,-0.246,0.456,0.05770,-0.04289,1.01907,48.133,0.0,I,,,,,,,,,,,,,,,,
13535174,2026-07-24,06:22:32.900,46.48361286,106.27277757,59000.24445,1,-16930,13941,51424,0.011,-0.247,0.469,0.05813,-0.04307,1.01999,48.111,0.0,I,,,,,,,,,,,,,,,,
13535274,2026-07-24,06:22:33.000,46.48361286,106.27277757,59000.23085,1,-16920,13925,51410,-0.011,-0.245,0.450,0.05854,-0.04253,1.02075,48.154,0.0,G,0.500,2,12,1430.30,-36.00,0.020,0.000, ,,'$GNGGA,062233.00,4629.01703,N,10616.36666,E,2,12,0.50,1430.3,M,-36.0,M,,0129*59','$GNRMC,062233.00,A,4629.01703,N,10616.36666,E,0.020,,240726,,,D,V*1F',,,,,
13535374,2026-07-24,06:22:33.100,46.48361285,106.27277755,59000.21190,1,-16894,13931,51370,0.006,-0.236,0.462,0.05824,-0.04264,1.02024,48.198,0.0,I,,,,,,,,,,,,,,,,
13535474,2026-07-24,06:22:33.200,46.48361283,106.27277754,59000.25585,1,-16910,13937,51451,0.023,-0.253,0.475,0.05835,-0.04286,1.01931,48.184,0.0,I,,,,,,,,,,,,,,,,
13535574,2026-07-24,06:22:33.300,46.48361281,106.27277752,59000.27110,1,-16885,13963,51495,0.031,-0.249,0.471,0.05847,-0.04273,1.01924,48.209,0.0,I,,,,,,,,,,,,,,,,
13535674,2026-07-24,06:22:33.400,46.48361279,106.27277750,59000.25760,1,-16865,13986,51453,0.035,-0.256,0.470,0.05787,-0.04302,1.01900,48.182,0.0,I,,,,,,,,,,,,,,,,
13535774,2026-07-24,06:22:33.500,46.48361278,106.27277748,59000.19195,1,-16929,13955,51434,0.003,-0.235,0.488,0.05758,-0.04338,1.01925,48.173,0.0,I,,,,,,,,,,,,,,,,
13535874,2026-07-24,06:22:33.600,46.48361276,106.27277747,59000.23440,1,-16990,13936,51434,0.015,-0.229,0.489,0.05766,-0.04279,1.01965,48.165,0.0,I,,,,,,,,,,,,,,,,
13535974,2026-07-24,06:22:33.700,46.48361274,106.27277745,59000.29550,1,-16956,13933,51395,-0.005,-0.249,0.481,0.05769,-0.04304,1.01977,48.154,0.0,I,,,,,,,,,,,,,,,,
13536074,2026-07-24,06:22:33.800,46.48361273,106.27277743,59000.25700,1,-16895,13943,51399,-0.002,-0.266,0.474,0.05796,-0.04290,1.01961,48.176,0.0,I,,,,,,,,,,,,,,,,
13536174,2026-07-24,06:22:33.900,46.48361271,106.27277742,59000.22500,1,-16885,13939,51358,0.021,-0.245,0.460,0.05851,-0.04279,1.01934,48.188,0.0,I,,,,,,,,,,,,,,,,
13536274,2026-07-24,06:22:34.000,46.48361269,106.27277740,59000.21115,1,-16897,13928,51283,0.002,-0.230,0.473,0.05825,-0.04334,1.01941,48.192,0.0,G,0.500,2,12,1430.30,-36.00,0.012,0.000, ,,'$GNGGA,062234.00,4629.01702,N,10616.36665,E,2,12,0.50,1430.3,M,-36.0,M,,0129*5C','$GNRMC,062234.00,A,4629.01702,N,10616.36665,E,0.012,,240726,,,D,V*1B',,,,,
13536374,2026-07-24,06:22:34.100,46.48361269,106.27277738,59000.23830,1,-16946,13935,51397,0.007,-0.263,0.458,0.05781,-0.04295,1.01981,48.158,0.0,I,,,,,,,,,,,,,,,,
13536474,2026-07-24,06:22:34.200,46.48361269,106.27277737,59000.24820,1,-16945,13952,51521,-0.005,-0.240,0.453,0.05756,-0.04253,1.02023,48.170,0.0,I,,,,,,,,,,,,,,,,
13536574,2026-07-24,06:22:34.300,46.48361269,106.27277735,59000.27805,1,-16963,13960,51546,-0.034,-0.255,0.466,0.05777,-0.04270,1.01963,48.186,0.0,I,,,,,,,,,,,,,,,,
13536674,2026-07-24,06:22:34.400,46.48361269,106.27277733,59000.28820,1,-16956,13964,51483,0.002,-0.269,0.484,0.05801,-0.04238,1.01938,48.200,0.0,I,,,,,,,,,,,,,,,,
13536774,2026-07-24,06:22:34.500,46.48361269,106.27277731,59000.30530,1,-16929,13935,51535,0.011,-0.260,0.459,0.05727,-0.04272,1.01964,48.213,0.0,I,,,,,,,,,,,,,,,,
13536874,2026-07-24,06:22:34.600,46.48361269,106.27277730,59000.23325,1,-16941,13917,51482,-0.013,-0.247,0.455,0.05760,-0.04337,1.01951,48.191,0.0,I,,,,,,,,,,,,,,,,
13536974,2026-07-24,06:22:34.700,46.48361269,106.27277728,59000.18465,1,-16966,13931,51406,-0.008,-0.270,0.452,0.05862,-0.04303,1.01959,48.159,0.0,I,,,,,,,,,,,,,,,,
13537074,2026-07-24,06:22:34.800,46.48361269,106.27277726,59000.23355,1,-16967,13939,51441,0.002,-0.260,0.462,0.05857,-0.04321,1.01964,48.194,0.0,I,,,,,,,,,,,,,,,,
13537174,2026-07-24,06:22:34.900,46.48361269,106.27277725,59000.23335,1,-16931,13941,51437,0.018,-0.242,0.495,0.05839,-0.04335,1.01977,48.197,0.0,I,,,,,,,,,,,,,,,,
13537274,2026-07-24,06:22:35.000,46.48361269,106.27277723,59000.19505,1,-16919,13931,51406,0.010,-0.242,0.497,0.05807,-0.04282,1.01939,48.191,0.0,G,0.500,2,12,1430.30,-36.00,0.020,0.000, ,,'$GNGGA,062235.00,4629.01702,N,10616.36664,E,2,12,0.50,1430.3,M,-36.0,M,,0129*5C','$GNRMC,062235.00,A,4629.01702,N,10616.36664,E,0.020,,240726,,,D,V*1A',,,,,
13537374,2026-07-24,06:22:35.100,46.48361269,106.27277723,59000.24140,1,-16901,13945,51487,-0.007,-0.259,0.488,0.05735,-0.04266,1.01970,48.167,0.0,I,,,,,,,,,,,,,,,,
13537474,2026-07-24,06:22:35.200,46.48361269,106.27277723,59000.25960,1,-16920,13963,51503,0.009,-0.271,0.472,0.05783,-0.04263,1.01996,48.184,0.0,I,,,,,,,,,,,,,,,,
13537574,2026-07-24,06:22:35.300,46.48361269,106.27277723,59000.21830,1,-16924,13932,51432,-0.007,-0.240,0.461,0.05776,-0.04244,1.01929,48.166,0.0,I,,,,,,,,,,,,,,,,
13537674,2026-07-24,06:22:35.400,46.48361269,106.27277723,59000.23165,1,-16867,13942,51446,0.003,-0.254,0.486,0.05723,-0.04301,1.01987,48.203,0.0,I,,,,,,,,,,,,,,,,
13537774,2026-07-24,06:22:35.500,46.48361269,106.27277723,59000.30080,1,-16916,13970,51486,-0.001,-0.239,0.484,0.05816,-0.04290,1.01962,48.172,0.0,I,,,,,,,,,,,,,,,,
13537874,2026-07-24,06:22:35.600,46.48361269,106.27277723,59000.29290,1,-16937,13948,51450,-0.007,-0.207,0.468,0.05820,-0.04282,1.01903,48.193,0.0,I,,,,,,,,,,,,,,,,
13537974,2026-07-24,06:22:35.700,46.48361269,106.27277723,59000.25320,1,-16888,13993,51431,0.001,-0.241,0.496,0.05823,-0.04312,1.01994,48.193,0.0,I,,,,,,,,,,,,,,,,
13538074,2026-07-24,06:22:35.800,46.48361269,106.27277723,59000.24855,1,-16882,14014,51391,0.002,-0.255,0.481,0.05826,-0.04283,1.01984,48.191,0.0,I,,,,,,,,,,,,,,,,
13538174,2026-07-24,06:22:35.900,46.48361269,106.27277723,59000.27645,1,-16930,13973,51409,0.020,-0.243,0.465,0.05767,-0.04259,1.01949,48.186,0.0,I,,,,,,,,,,,,,,,,
13538274,2026-07-24,06:22:36.000,46.48361269,106.27277723,59000.25280,1,-16994,13948,51516,0.003,-0.244,0.457,0.05713,-0.04300,1.01934,48.209,0.0,G,0.500,2,12,1430.30,-36.00,0.008,0.000, ,,'$GNGGA,062236.00,4629.01702,N,10616.36664,E,2,12,0.50,1430.3,M,-36.0,M,,0129*5F','$GNRMC,062236.00,A,4629.01702,N,10616.36664,E,0.008,,240726,,,D,V*13',,,,,
13538374,2026-07-24,06:22:36.100,46.48361268,106.27277723,59000.22690,1,-16935,13965,51517,-0.018,-0.220,0.480,0.05766,-0.04248,1.01950,48.213,0.0,I,,,,,,,,,,,,,,,,
13538474,2026-07-24,06:22:36.200,46.48361266,106.27277723,59000.25525,1,-16893,13969,51436,0.009,-0.239,0.489,0.05836,-0.04206,1.02008,48.211,0.0,I,,,,,,,,,,,,,,,,
13538574,2026-07-24,06:22:36.300,46.48361264,106.27277723,59000.25555,1,-16943,13975,51337,0.007,-0.233,0.457,0.05818,-0.04307,1.01954,48.215,0.0,I,,,,,,,,,,,,,,,,
13538674,2026-07-24,06:22:36.400,46.48361262,106.27277723,59000.26035,1,-16940,13974,51410,0.002,-0.249,0.463,0.05783,-0.04289,1.01987,48.181,0.0,I,,,,,,,,,,,,,,,,
13538774,2026-07-24,06:22:36.500,46.48361261,106.27277723,59000.23700,1,-16964,13993,51543,0.016,-0.275,0.458,0.05798,-0.04285,1.01999,48.160,0.0,I,,,,,,,,,,,,,,,,
13538874,2026-07-24,06:22:36.600,46.48361259,106.27277723,59000.24810,1,-16993,13984,51480,0.026,-0.237,0.462,0.05790,-0.04303,1.01856,48.209,0.0,I,,,,,,,,,,,,,,,,
13538974,2026-07-24,06:22:36.700,46.48361257,106.27277723,59000.24435,1,-16914,13953,51471,0.005,-0.225,0.455,0.05782,-0.04254,1.01886,48.197,0.0,I,,,,,,,,,,,,,,,,
13539074,2026-07-24,06:22:36.800,46.48361256,106.27277723,59000.21310,1,-16911,13970,51517,0.009,-0.253,0.467,0.05829,-0.04284,1.01974,48.224,0.0,I,,,,,,,,,,,,,,,,
13539174,2026-07-24,06:22:36.900,46.48361254,106.27277723,59000.25510,1,-16950,13962,51425,0.017,-0.242,0.482,0.05831,-0.04277,1.01958,48.239,0.0,I,,,,,,,,,,,,,,,,
13539274,2026-07-24,06:22:37.000,46.48361252,106.27277723,59000.28155,1,-16993,13959,51466,0.015,-0.251,0.481,0.05777,-0.04301,1.01965,48.180,0.0,G,0.500,2,12,1430.30,-36.00,0.002,0.000, ,,'$GNGGA,062237.00,4629.01701,N,10616.36664,E,2,12,0.50,1430.3,M,-36.0,M,,0129*5D','$GNRMC,062237.00,A,4629.01701,N,10616.36664,E,0.002,,240726,,,D,V*1B',,,,,
13539374,2026-07-24,06:22:37.100,46.48361251,106.27277725,59000.28315,1,-16984,13956,51481,0.021,-0.241,0.510,0.05765,-0.04242,1.01947,48.184,0.0,I,,,,,,,,,,,,,,,,
13539474,2026-07-24,06:22:37.200,46.48361249,106.27277726,59000.28445,1,-16904,13948,51456,0.003,-0.238,0.486,0.05767,-0.04241,1.01964,48.196,0.0,I,,,,,,,,,,,,,,,,
13539574,2026-07-24,06:22:37.300,46.48361247,106.27277728,59000.25410,1,-16913,13979,51482,-0.001,-0.228,0.464,0.05745,-0.04268,1.01944,48.210,0.0,I,,,,,,,,,,,,,,,,
13539674,2026-07-24,06:22:37.400,46.48361246,106.27277730,59000.27385,1,-16942,13965,51446,0.007,-0.217,0.487,0.05784,-0.04257,1.01943,48.256,0.0,I,,,,,,,,,,,,,,,,
13539774,2026-07-24,06:22:37.500,46.48361244,106.27277731,59000.29140,1,-16932,13955,51356,0.010,-0.222,0.492,0.05817,-0.04281,1.01952,48.221,0.0,I,,,,,,,,,,,,,,,,
13539874,2026-07-24,06:22:37.600,46.48361243,106.27277733,59000.24240,1,-16964,13980,51431,0.000,-0.222,0.480,0.05816,-0.04314,1.01937,48.201,0.0,I,,,,,,,,,,,,,,,,
13539974,2026-07-24,06:22:37.700,46.48361241,106.27277735,59000.23620,1,-16994,13966,51510,-0.017,-0.241,0.466,0.05814,-0.04261,1.01885,48.277,0.0,I,,,,,,,,,,,,,,,,
13540074,2026-07-24,06:22:37.800,46.48361239,106.27277737,59000.25705,1,-16938,13957,51442,-0.015,-0.222,0.463,0.05791,-0.04248,1.01940,48.214,0.0,I,,,,,,,,,,,,,,,,
13540174,2026-07-24,06:22:37.900,46.48361238,106.27277738,59000.25000,1,-16931,13963,51471,0.015,-0.247,0.478,0.05829,-0.04248,1.01969,48.238,0.0,I,,,,,,,,,,,,,,,,
13540274,2026-07-24,06:22:38.000,46.48361236,106.27277740,59000.25975,1,-16913,13962,51399,0.013,-0.249,0.490,0.05832,-0.04244,1.01977,48.193,0.0,G,0.500,2,12,1430.30,-36.00,0.033,0.000, ,,'$GNGGA,062238.00,4629.01700,N,10616.36665,E,2,12,0.50,1430.3,M,-36.0,M,,0129*52','$GNRMC,062238.00,A,4629.01700,N,10616.36665,E,0.033,,240726,,,D,V*16',,,,,
13540374,2026-07-24,06:22:38.100,46.48361234,106.27277740,59000.31260,1,-16915,13993,51453,0.017,-0.214,0.478,0.05758,-0.04282,1.02016,48.211,0.0,I,,,,,,,,,,,,,,,,
13540474,2026-07-24,06:22:38.200,46.48361233,106.27277740,59000.34790,1,-16935,13971,51428,0.023,-0.242,0.473,0.05775,-0.04300,1.01914,48.216,0.0,I,,,,,,,,,,,,,,,,
13540574,2026-07-24,06:22:38.300,46.48361231,106.27277740,59000.34015,1,-16896,13965,51435,0.038,-0.236,0.451,0.05758,-0.04303,1.01849,48.213,0.0,I,,,,,,,,,,,,,,,,
13540674,2026-07-24,06:22:38.400,46.48361229,106.27277740,59000.32815,1,-16956,13964,51589,-0.032,-0.233,0.451,0.05749,-0.04278,1.01960,48.227,0.0,I,,,,,,,,,,,,,,,,
13540774,2026-07-24,06:22:38.500,46.48361228,106.27277740,59000.32385,1,-16977,13955,51484,-0.041,-0.239,0.457,0.05781,-0.04250,1.01967,48.247,0.0,I,,,,,,,,,,,,,,,,
13540874,2026-07-24,06:22:38.600,46.48361226,106.27277740,59000.24675,1,-16939,13964,51372,-0.029,-0.249,0.467,0.05748,-0.04267,1.01960,48.250,0.0,I,,,,,,,,,,,,,,,,
13540974,2026-07-24,06:22:38.700,46.48361224,106.27277740,59000.27760,1,-16928,13979,51409,0.018,-0.270,0.476,0.05720,-0.04299,1.02021,48.252,0.0,I,,,,,,,,,,,,,,,,
13541074,2026-07-24,06:22:38.800,46.48361223,106.27277740,59000.26540,1,-16946,13962,51449,0.013,-0.249,0.476,0.05752,-0.04238,1.01947,48.205,0.0,I,,,,,,,,,,,,,,,,
13541174,2026-07-24,06:22:38.900,46.48361221,106.27277740,59000.28855,1,-16926,14001,51457,-0.005,-0.240,0.449,0.05751,-0.04226,1.02005,48.227,0.0,I,,,,,,,,,,,,,,,,
13541274,2026-07-24,06:22:39.000,46.48361219,106.27277740,59000.33475,1,-16955,13984,51476,0.012,-0.238,0.460,0.05678,-0.04242,1.02071,48.211,0.0,G,0.500,2,12,1430.30,-36.00,0.016,0.000, ,,'$GNGGA,062239.00,4629.01699,N,10616.36665,E,2,12,0.50,1430.3,M,-36.0,M,,0129*52','$GNRMC,062239.00,A,4629.01699,N,10616.36665,E,0.016,,240726,,,D,V*11',,,,,
13541374,2026-07-24,06:22:39.100,46.48361217,106.27277740,59000.31165,1,-16939,13930,51465,0.028,-0.230,0.475,0.05770,-0.04245,1.02012,48.227,0.0,I,,,,,,,,,,,,,,,,
13541474,2026-07-24,06:22:39.200,46.48361216,106.27277740,59000.30770,1,-16953,13956,51375,0.030,-0.218,0.463,0.05777,-0.04255,1.01943,48.225,0.0,I,,,,,,,,,,,,,,,,
13541574,2026-07-24,06:22:39.300,46.48361214,106.27277740,59000.31200,1,-16920,13972,51399,0.001,-0.215,0.471,0.05768,-0.04294,1.01951,48.238,0.0,I,,,,,,,,,,,,,,,,
13541674,2026-07-24,06:22:39.400,46.48361212,106.27277740,59000.31650,1,-16952,13948,51389,-0.008,-0.227,0.494,0.05809,-0.04282,1.01946,48.254,0.0,I,,,,,,,,,,,,,,,,
13541774,2026-07-24,06:22:39.500,46.48361211,106.27277740,59000.33845,1,-16937,13964,51489,-0.008,-0.241,0.478,0.05756,-0.04274,1.01955,48.275,0.0,I,,,,,,,,,,,,,,,,
13541874,2026-07-24,06:22:39.600,46.48361209,106.27277740,59000.38820,1,-16885,13950,51429,-0.018,-0.246,0.454,0.05755,-0.04280,1.01928,48.256,0.0,I,,,,,,,,,,,,,,,,
13541974,2026-07-24,06:22:39.700,46.48361207,106.27277740,59000.35255,1,-16931,13949,51429,-0.018,-0.240,0.480,0.05816,-0.04270,1.01904,48.205,0.0,I,,,,,,,,,,,,,,,,
13542074,2026-07-24,06:22:39.800,46.48361206,106.27277740,59000.35425,1,-16943,13967,51464,0.030,-0.248,0.481,0.05853,-0.04282,1.01912,48.239,0.0,I,,,,,,,,,,,,,,,,
13542174,2026-07-24,06:22:39.900,46.48361204,106.27277740,59000.36685,1,-16943,13954,51358,0.039,-0.237,0.481,0.05838,-0.04306,1.01912,48.265,0.0,I,,,,,,,,,,,,,,,,
13542274,2026-07-24,06:22:40.000,46.48361202,106.27277740,59000.32895,1,-16939,13949,51392,0.009,-0.234,0.475,0.05780,-0.04271,1.01986,48.242,0.0,G,0.520,2,12,1430.30,-36.00,0.011,0.000, ,,'$GNGGA,062240.00,4629.01698,N,10616.36665,E,2,12,0.52,1430.3,M,-36.0,M,,0129*5F','$GNRMC,062240.00,A,4629.01698,N,10616.36665,E,0.011,,240726,,,D,V*19',,,,,
13542374,2026-07-24,06:22:40.100,46.48361202,106.27277740,59000.36120,1,-16945,13969,51409,0.010,-0.238,0.461,0.05766,-0.04266,1.02030,48.232,0.0,I,,,,,,,,,,,,,,,,
13542474,2026-07-24,06:22:40.200,46.48361202,106.27277740,59000.36255,1,-16960,13965,51450,0.036,-0.240,0.490,0.05816,-0.04301,1.01988,48.214,0.0,I,,,,,,,,,,,,,,,,
13542574,2026-07-24,06:22:40.300,46.48361202,106.27277740,59000.36500,1,-16935,13957,51452,-0.003,-0.235,0.495,0.05812,-0.04260,1.01923,48.274,0.0,I,,,,,,,,,,,,,,,,
13542674,2026-07-24,06:22:40.400,46.48361202,106.27277740,59000.35730,1,-16909,13965,51404,-0.024,-0.225,0.461,0.05802,-0.04346,1.01969,48.234,0.0,I,,,,,,,,,,,,,,,,
13542774,2026-07-24,06:22:40.500,46.48361202,106.27277740,59000.30965,1,-16899,13967,51490,0.019,-0.236,0.451,0.05788,-0.04357,1.01894,48.283,0.0,I,,,,,,,,,,,,,,,,
13542874,2026-07-24,06:22:40.600,46.48361202,106.27277740,59000.35905,1,-16926,13972,51476,0.026,-0.229,0.497,0.05759,-0.04295,1.01961,48.240,0.0,I,,,,,,,,,,,,,,,,
13542974,2026-07-24,06:22:40.700,46.48361202,106.27277740,59000.37310,1,-16930,13966,51503,0.012,-0.211,0.494,0.05754,-0.04283,1.02009,48.237,0.0,I,,,,,,,,,,,,,,,,
13543074,2026-07-24,06:22:40.800,46.48361202,106.27277740,59000.36340,1,-16914,13948,51577,0.006,-0.207,0.477,0.05803,-0.04279,1.02005,48.240,0.0,I,,,,,,,,,,,,,,,,
13543174,2026-07-24,06:22:40.900,46.48361202,106.27277740,59000.43730,1,-16923,13983,51458,0.000,-0.241,0.487,0.05782,-0.04303,1.01904,48.225,0.0,I,,,,,,,,,,,,,,,,
13543274,2026-07-24,06:22:41.000,46.48361202,106.27277740,59000.38170,1,-16877,13971,51414,-0.005,-0.248,0.471,0.05732,-0.04271,1.01935,48.247,0.0,G,0.500,2,12,1430.30,-36.00,0.018,0.000, ,,'$GNGGA,062241.00,4629.01698,N,10616.36665,E,2,12,0.50,1430.3,M,-36.0,M,,0129*5C','$GNRMC,062241.00,A,4629.01698,N,10616.36665,E,0.018,,240726,,,D,V*11',,,,,
13543374,2026-07-24,06:22:41.100,46.48361201,106.27277740,59000.35095,1,-16875,13937,51488,0.005,-0.238,0.482,0.05783,-0.04284,1.01972,48.273,0.0,I,,,,,,,,,,,,,,,,
13543474,2026-07-24,06:22:41.200,46.48361199,106.27277740,59000.41150,1,-16966,13961,51502,0.014,-0.234,0.486,0.05794,-0.04223,1.01982,48.270,0.0,I,,,,,,,,,,,,,,,,
13543574,2026-07-24,06:22:41.300,46.48361197,106.27277740,59000.40810,1,-16939,13972,51463,0.013,-0.249,0.466,0.05823,-0.04193,1.02013,48.256,0.0,I,,,,,,,,,,,,,,,,
13543674,2026-07-24,06:22:41.400,46.48361196,106.27277740,59000.40185,1,-16952,13957,51424,-0.012,-0.225,0.481,0.05831,-0.04308,1.01965,48.277,0.0,I,,,,,,,,,,,,,,,,
13543774,2026-07-24,06:22:41.500,46.48361194,106.27277740,59000.44715,1,-16942,13982,51463,0.000,-0.238,0.489,0.05822,-0.04307,1.01981,48.255,0.0,I,,,,,,,,,,,,,,,,
13543874,2026-07-24,06:22:41.600,46.48361193,106.27277740,59000.43955,1,-16903,13972,51507,0.022,-0.257,0.482,0.05768,-0.04289,1.01986,48.271,0.0,I,,,,,,,,,,,,,,,,
13543974,2026-07-24,06:22:41.700,46.48361191,106.27277740,59000.41865,1,-16907,13978,51439,0.024,-0.240,0.481,0.05791,-0.04281,1.01979,48.277,0.0,I,,,,,,,,,,,,,,,,
13544074,2026-07-24,06:22:41.800,46.48361189,106.27277740,59000.39920,1,-16929,13972,51440,0.019,-0.248,0.471,0.05834,-0.04259,1.01939,48.256,0.0,I,,,,,,,,,,,,,,,,
13544174,2026-07-24,06:22:41.900,46.48361188,106.27277740,59000.44685,1,-16961,13949,51465,-0.007,-0.268,0.471,0.05745,-0.04268,1.01946,48.250,0.0,I,,,,,,,,,,,,,,,,
13544274,2026-07-24,06:22:42.000,46.48361186,106.27277740,59000.41650,1,-16957,13948,51396,0.006,-0.278,0.459,0.05716,-0.04267,1.01948,48.296,0.0,G,0.500,2,12,1430.30,-36.00,0.013,0.000, ,,'$GNGGA,062242.00,4629.01697,N,10616.36665,E,2,12,0.50,1430.3,M,-36.0,M,,0129*50','$GNRMC,062242.00,A,4629.01697,N,10616.36665,E,0.013,,240726,,,D,V*16',,,,,
13544374,2026-07-24,06:22:42.100,46.48361186,106.27277740,59000.41850,1,-16939,13965,51415,0.001,-0.235,0.463,0.05729,-0.04280,1.01881,48.266,0.0,I,,,,,,,,,,,,,,,,
13544474,2026-07-24,06:22:42.200,46.48361186,106.27277740,59000.46620,1,-16899,13978,51471,0.021,-0.242,0.495,0.05751,-0.04293,1.01966,48.256,0.0,I,,,,,,,,,,,,,,,,
13544574,2026-07-24,06:22:42.300,46.48361186,106.27277740,59000.47040,1,-16932,13976,51492,0.024,-0.265,0.457,0.05729,-0.04302,1.02013,48.254,0.0,I,,,,,,,,,,,,,,,,
13544674,2026-07-24,06:22:42.400,46.48361186,106.27277740,59000.45775,1,-16955,13968,51471,0.010,-0.262,0.460,0.05758,-0.04310,1.02002,48.236,0.0,I,,,,,,,,,,,,,,,,
13544774,2026-07-24,06:22:42.500,46.48361186,106.27277740,59000.40905,1,-16963,13942,51358,0.010,-0.243,0.497,0.05786,-0.04242,1.01967,48.301,0.0,I,,,,,,,,,,,,,,,,
13544874,2026-07-24,06:22:42.600,46.48361186,106.27277740,59000.45930,1,-16923,13948,51406,0.000,-0.244,0.491,0.05762,-0.04261,1.01943,48.283,0.0,I,,,,,,,,,,,,,,,,
13544974,2026-07-24,06:22:42.700,46.48361186,106.27277740,59000.47040,1,-16934,13972,51482,0.024,-0.253,0.480,0.05812,-0.04289,1.01917,48.289,0.0,I,,,,,,,,,,,,,,,,
13545074,2026-07-24,06:22:42.800,46.48361186,106.27277740,59000.49960,1,-16959,13955,51500,0.010,-0.250,0.466,0.05803,-0.04256,1.01911,48.229,0.0,I,,,,,,,,,,,,,,,,
13545174,2026-07-24,06:22:42.900,46.48361186,106.27277740,59000.45455,1,-16915,13944,51515,-0.006,-0.245,0.475,0.05776,-0.04231,1.01943,48.293,0.0,I,,,,,,,,,,,,,,,,
13545274,2026-07-24,06:22:43.000,46.48361186,106.27277740,59000.44170,1,-16970,13960,51465,-0.000,-0.236,0.489,0.05774,-0.04262,1.01943,48.281,0.0,G,0.500,2,12,1430.30,-36.00,0.016,0.000, ,,'$GNGGA,062243.00,4629.01697,N,10616.36665,E,2,12,0.50,1430.3,M,-36.0,M,,0129*51','$GNRMC,062243.00,A,4629.01697,N,10616.36665,E,0.016,,240726,,,D,V*12',,,,,
13545374,2026-07-24,06:22:43.100,46.48361185,106.27277738,59000.45045,1,-16972,13946,51473,-0.003,-0.243,0.467,0.05773,-0.04265,1.01953,48.279,0.0,I,,,,,,,,,,,,,,,,
13545474,2026-07-24,06:22:43.200,46.48361183,106.27277737,59000.48275,1,-16890,13949,51448,-0.016,-0.264,0.447,0.05780,-0.04267,1.01947,48.283,0.0,I,,,,,,,,,,,,,,,,
13545574,2026-07-24,06:22:43.300,46.48361181,106.27277735,59000.51550,1,-16905,13953,51375,0.003,-0.254,0.482,0.05777,-0.04255,1.01936,48.297,0.0,I,,,,,,,,,,,,,,,,
13545674,2026-07-24,06:22:43.400,46.48361179,106.27277733,59000.49280,1,-16948,13972,51437,0.012,-0.251,0.500,0.05772,-0.04216,1.02018,48.303,0.0,I,,,,,,,,,,,,,,,,
13545774,2026-07-24,06:22:43.500,46.48361178,106.27277731,59000.48230,1,-16910,13960,51463,0.032,-0.243,0.471,0.05749,-0.04233,1.02056,48.311,0.0,I,,,,,,,,,,,,,,,,
13545874,2026-07-24,06:22:43.600,46.48361176,106.27277730,59000.49305,1,-16932,13942,51478,0.005,-0.250,0.475,0.05768,-0.04315,1.01979,48.291,0.0,I,,,,,,,,,,,,,,,,
13545974,2026-07-24,06:22:43.700,46.48361174,106.27277728,59000.52345,1,-16980,13942,51508,-0.014,-0.239,0.467,0.05784,-0.04239,1.01943,48.282,0.0,I,,,,,,,,,,,,,,,,
13546074,2026-07-24,06:22:43.800,46.48361173,106.27277726,59000.51950,1,-16972,13965,51484,0.002,-0.243,0.474,0.05829,-0.04179,1.02019,48.254,0.0,I,,,,,,,,,,,,,,,,
13546174,2026-07-24,06:22:43.900,46.48361171,106.27277724,59000.46430,1,-16966,13973,51477,-0.010,-0.248,0.474,0.05761,-0.04300,1.02003,48.262,0.0,I,,,,,,,,,,,,,,,,
13546274,2026-07-24,06:22:44.000,46.48361169,106.27277723,59000.53420,1,-16946,13954,51486,0.016,-0.221,0.464,0.05768,-0.04299,1.01956,48.283,0.0,G,0.500,2,12,1430.30,-36.00,0.014,0.000, ,,'$GNGGA,062244.00,4629.01696,N,10616.36664,E,2,12,0.50,1430.3,M,-36.0,M,,0129*56','$GNRMC,062244.00,A,4629.01696,N,10616.36664,E,0.014,,240726,,,D,V*17',,,,,
13546374,2026-07-24,06:22:44.100,46.48361169,106.27277724,59000.51370,1,-16936,13941,51388,0.030,-0.242,0.471,0.05857,-0.04251,1.01959,48.277,0.0,I,,,,,,,,,,,,,,,,
13546474,2026-07-24,06:22:44.200,46.48361169,106.27277726,59000.51430,1,-16882,13954,51426,0.007,-0.250,0.476,0.05842,-0.04308,1.01903,48.309,0.0,I,,,,,,,,,,,,,,,,
13546574,2026-07-24,06:22:44.300,46.48361169,106.27277728,59000.54885,1,-16918,13935,51358,0.025,-0.243,0.492,0.05816,-0.04282,1.01863,48.326,0.0,I,,,,,,,,,,,,,,,,
13546674,2026-07-24,06:22:44.400,46.48361169,106.27277730,59000.52770,1,-16942,13926,51417,0.019,-0.241,0.471,0.05823,-0.04237,1.01917,48.265,0.0,I,,,,,,,,,,,,,,,,
13546774,2026-07-24,06:22:44.500,46.48361169,106.27277731,59000.51005,1,-16919,13965,51476,0.007,-0.263,0.444,0.05744,-0.04226,1.01939,48.280,0.0,I,,,,,,,,,,,,,,,,
13546874,2026-07-24,06:22:44.600,46.48361169,106.27277733,59000.51610,1,-16903,13956,51538,0.014,-0.259,0.492,0.05737,-0.04231,1.02036,48.262,0.0,I,,,,,,,,,,,,,,,,
13546974,2026-07-24,06:22:44.700,46.48361169,106.27277735,59000.52550,1,-16932,13948,51434,0.013,-0.242,0.500,0.05720,-0.04259,1.01995,48.311,0.0,I,,,,,,,,,,,,,,,,
13547074,2026-07-24,06:22:44.800,46.48361169,106.27277737,59000.55880,1,-16949,13940,51392,0.015,-0.231,0.486,0.05762,-0.04284,1.01919,48.300,0.0,I,,,,,,,,,,,,,,,,
13547174,2026-07-24,06:22:44.900,46.48361169,106.27277738,59000.56575,1,-16899,13948,51396,0.004,-0.246,0.470,0.05763,-0.04338,1.01975,48.329,0.0,I,,,,,,,,,,,,,,,,
13547274,2026-07-24,06:22:45.000,46.48361169,106.27277740,59000.58625,1,-16950,13962,51379,0.008,-0.258,0.478,0.05750,-0.04265,1.01933,48.295,0.0,G,0.500,2,12,1430.30,-36.00,0.035,0.000, ,,'$GNGGA,062245.00,4629.01696,N,10616.36665,E,2,12,0.50,1430.3,M,-36.0,M,,0129*56','$GNRMC,062245.00,A,4629.01696,N,10616.36665,E,0.035,,240726,,,D,V*14',,,,,
13547374,2026-07-24,06:22:45.100,46.48361168,106.27277740,59000.53070,1,-17005,13943,51392,-0.006,-0.282,0.484,0.05736,-0.04280,1.01925,48.314,0.0,I,,,,,,,,,,,,,,,,
13547474,2026-07-24,06:22:45.200,46.48361166,106.27277740,59000.52405,1,-16916,13958,51456,0.002,-0.264,0.480,0.05753,-0.04300,1.02007,48.306,0.0,I,,,,,,,,,,,,,,,,
13547574,2026-07-24,06:22:45.300,46.48361164,106.27277740,59000.59785,1,-16924,13964,51456,0.014,-0.271,0.458,0.05798,-0.04275,1.02026,48.354,0.0,I,,,,,,,,,,,,,,,,
13547674,2026-07-24,06:22:45.400,46.48361162,106.27277740,59000.53525,1,-16949,13934,51411,0.015,-0.289,0.464,0.05776,-0.04322,1.01940,48.270,0.0,I,,,,,,,,,,,,,,,,
13547774,2026-07-24,06:22:45.500,46.48361161,106.27277740,59000.61735,1,-16909,13934,51403,0.013,-0.245,0.481,0.05741,-0.04322,1.02017,48.297,0.0,I,,,,,,,,,,,,,,,,
13547874,2026-07-24,06:22:45.600,46.48361159,106.27277740,59000.62600,1,-16896,13974,51435,0.014,-0.238,0.451,0.05744,-0.04297,1.02048,48.324,0.0,I,,,,,,,,,,,,,,,,
13547974,2026-07-24,06:22:45.700,46.48361157,106.27277740,59000.53245,1,-16874,13956,51474,0.031,-0.237,0.467,0.05802,-0.04308,1.02040,48.336,0.0,I,,,,,,,,,,,,,,,,
13548074,2026-07-24,06:22:45.800,46.48361156,106.27277740,59000.55010,1,-16913,13978,51516,0.012,-0.252,0.476,0.05799,-0.04328,1.02000,48.295,0.0,I,,,,,,,,,,,,,,,,
13548174,2026-07-24,06:22:45.900,46.48361154,106.27277740,59000.57040,1,-16939,13975,51524,-0.020,-0.249,0.496,0.05747,-0.04315,1.01960,48.320,0.0,I,,,,,,,,,,,,,,,,
13548274,2026-07-24,06:22:46.000,46.48361152,106.27277740,59000.59085,1,-16929,13960,51388,0.002,-0.241,0.502,0.05796,-0.04271,1.01977,48.309,0.0,G,0.500,2,12,1430.30,-36.00,0.007,0.000, ,,'$GNGGA,062246.00,4629.01695,N,10616.36665,E,2,12,0.50,1430.3,M,-36.0,M,,0129*56','$GNRMC,062246.00,A,4629.01695,N,10616.36665,E,0.007,,240726,,,D,V*15',,,,,
13548374,2026-07-24,06:22:46.100,46.48361151,106.27277740,59000.58080,1,-16932,13943,51359,0.008,-0.242,0.479,0.05782,-0.04242,1.01956,48.334,0.0,I,,,,,,,,,,,,,,,,
13548474,2026-07-24,06:22:46.200,46.48361149,106.27277740,59000.59685,1,-16900,13917,51449,-0.000,-0.250,0.469,0.05752,-0.04312,1.01977,48.311,0.0,I,,,,,,,,,,,,,,,,
13548574,2026-07-24,06:22:46.300,46.48361147,106.27277740,59000.60530,1,-16891,13948,51456,0.017,-0.272,0.467,0.05749,-0.04310,1.01986,48.338,0.0,I,,,,,,,,,,,,,,,,
13548674,2026-07-24,06:22:46.400,46.48361146,106.27277740,59000.60540,1,-16981,13969,51400,0.007,-0.230,0.487,0.05804,-0.04288,1.01967,48.338,0.0,I,,,,,,,,,,,,,,,,
13548774,2026-07-24,06:22:46.500,46.48361144,106.27277740,59000.60825,1,-16940,13929,51415,0.004,-0.226,0.493,0.05787,-0.04284,1.01952,48.354,0.0,I,,,,,,,,,,,,,,,,
13548874,2026-07-24,06:22:46.600,46.48361143,106.27277740,59000.62375,1,-16918,13934,51466,0.022,-0.235,0.479,0.05794,-0.04260,1.01920,48.329,0.0,I,,,,,,,,,,,,,,,,
13548974,2026-07-24,06:22:46.700,46.48361141,106.27277740,59000.61445,1,-16958,13980,51491,0.003,-0.223,0.489,0.05759,-0.04276,1.01995,48.342,0.0,I,,,,,,,,,,,,,,,,
13549074,2026-07-24,06:22:46.800,46.48361139,106.27277740,59000.61110,1,-16933,13982,51440,-0.014,-0.243,0.510,0.05718,-0.04285,1.01982,48.326,0.0,I,,,,,,,,,,,,,,,,
13549174,2026-07-24,06:22:46.900,46.48361138,106.27277740,59000.56170,1,-16892,13959,51466,0.004,-0.244,0.510,0.05745,-0.04269,1.01929,48.308,0.0,I,,,,,,,,,,,,,,,,
13549274,2026-07-24,06:22:47.000,46.48361136,106.27277740,59000.56870,1,-16878,13951,51383,-0.007,-0.249,0.513,0.05742,-0.04329,1.01902,48.345,0.0,G,0.500,2,12,1430.30,-36.00,0.014,0.000, ,,'$GNGGA,062247.00,4629.01694,N,10616.36665,E,2,12,0.50,1430.3,M,-36.0,M,,0129*56','$GNRMC,062247.00,A,4629.01694,N,10616.36665,E,0.014,,240726,,,D,V*17',,,,,
13549374,2026-07-24,06:22:47.100,46.48361136,106.27277738,59000.62980,1,-16952,13930,51488,0.008,-0.260,0.458,0.05767,-0.04317,1.01927,48.393,0.0,I,,,,,,,,,,,,,,,,
13549474,2026-07-24,06:22:47.200,46.48361136,106.27277737,59000.64580,1,-16939,13963,51483,0.033,-0.244,0.459,0.05763,-0.04253,1.01986,48.338,0.0,I,,,,,,,,,,,,,,,,
13549574,2026-07-24,06:22:47.300,46.48361136,106.27277735,59000.62500,1,-16915,13978,51452,0.014,-0.245,0.477,0.05724,-0.04293,1.01968,48.348,0.0,I,,,,,,,,,,,,,,,,
